time_milisec,ax,ay,az
1421109334807.00,-0.99812436,2.8868966,9.507479
1421109334821.00,-1.0615925,3.0097911,9.323063
1421109334856.00,-1.1304492,2.7649004,9.267379
1421109334860.00,-0.9818083,2.7649004,9.46377
1421109334882.00,-1.0572515,2.6851163,9.683363
1421109334890.00,-1.1201206,2.530937,9.61286
1421109334909.00,-0.9449849,2.470313,9.629775
1421109334933.00,-1.019979,2.5634193,9.72812
1421109334953.00,-1.2939093,2.7440937,9.859996
1421109334973.00,-1.2120296,2.7848089,9.641002
1421109334992.00,-1.2298425,3.011288,9.452543
1421109335013.00,-1.3711487,3.2210019,9.823622
1421109335033.00,-1.5925384,3.3477883,9.970167
1421109335063.00,-1.5567627,3.3711398,9.850566
1421109335072.00,-1.1744577,3.5645375,9.59834
1421109335093.00,-1.1972104,3.427273,9.382639
1421109335110.00,-1.2660671,3.3841627,9.386531
1421109335132.00,-1.1461666,3.3341665,9.514664
1421109335153.00,-1.0370435,3.1244526,9.456435
1421109335171.00,-1.0312057,3.3135095,9.35345
1421109335190.00,-0.8096663,3.0937665,9.207204
1421109335210.00,-0.6459068,3.0567935,9.0181465
1421109335230.00,-0.68961596,3.0340407,9.075328
1421109335249.00,-0.6816824,2.8738737,9.264235
1421109335272.00,-0.61537033,2.8223808,9.355246
1421109335290.00,-0.626597,2.8056157,9.4877205
1421109335309.00,-0.703537,2.7660978,9.405242
1421109335330.00,-0.75937086,2.802472,9.419911
1421109335358.00,-1.0509645,2.9231215,9.551638
1421109335372.00,-1.1298505,2.9026139,9.586964
1421109335393.00,-1.0976673,2.9864397,9.585916
1421109335411.00,-0.98105985,2.9644353,9.552086
1421109335430.00,-1.1822416,3.1090348,9.494007
1421109335450.00,-1.3085788,3.421435,9.517209
1421109335470.00,-1.2952565,3.254233,9.24253
1421109335493.00,-1.2563374,3.3524287,9.347611
1421109335512.00,-1.3611195,3.4081128,9.394614
1421109335530.00,-1.2820839,3.4618511,9.367071
1421109335561.00,-1.3132192,3.4271233,9.42081
1421109335571.00,-1.3629158,3.5567536,9.196426
1421109335592.00,-1.1365864,3.3557217,9.145232
1421109335610.00,-0.9780661,3.2242951,9.244177
1421109335630.00,-0.8244855,2.9392877,9.262139
1421109335650.00,-1.0265652,2.9521608,9.3613825
1421109335672.00,-1.031954,3.0710137,9.462722
1421109335692.00,-0.99183744,3.1078372,9.4402685
1421109335712.00,-0.8963361,3.1389725,9.28579
1421109335732.00,-0.95501405,3.2486944,9.279802
1421109335752.00,-1.0467732,3.3576677,9.204209
1421109335772.00,-1.063688,3.264711,9.389824
1421109335792.00,-1.1265574,3.3928444,9.400152
1421109335812.00,-1.0325528,3.1496003,9.423354
1421109335833.00,-1.0063573,3.171455,9.449999
1421109335852.00,-1.1623329,3.182382,9.553733
1421109335872.00,-0.891546,3.14017,9.49745
1421109335892.00,-0.98570025,2.976261,9.375304
1421109335913.00,-0.95621157,3.1537917,9.407038
1421109335930.00,-0.9665401,3.1328351,9.178762
1421109335951.00,-0.9849518,2.9939241,9.298813
1421109335972.00,-1.0138417,3.0720615,9.320068
1421109335991.00,-0.90052736,3.0505064,9.394165
1421109336011.00,-0.79394895,2.9591963,9.387578
1421109336030.00,-1.0523117,3.0895753,9.492062
1421109336050.00,-0.9755214,2.892435,9.575887
1421109336070.00,-1.1391312,3.145858,9.639954
1421109336093.00,-0.95321774,3.049309,9.604477
1421109336111.00,-1.1042536,3.0440698,9.512718
1421109336132.00,-1.1618838,3.0053005,9.55508
1421109336150.00,-1.0831475,3.1055918,9.629476
1421109336194.00,-0.8849597,3.2033386,9.523496
1421109336195.00,-1.016087,3.1039453,9.298364
1421109336242.00,-0.9235794,2.973267,9.414073
1421109336243.00,-0.9798624,2.8355534,9.203462
1421109336258.00,-1.001717,2.9755125,9.12727
1421109336296.00,-0.9621991,2.8388467,9.279503
1421109336299.00,-1.103655,2.9677286,9.693093
1421109336311.00,-1.0392888,2.9849427,9.657467
1421109336342.00,-1.0060579,2.9446764,9.471853
1421109336349.00,-1.0009685,3.1585817,9.304951
1421109336372.00,-0.9831555,3.0796957,9.38713
1421109336392.00,-1.0611434,3.0987062,9.644145
1421109336410.00,-0.98764616,3.0460157,9.68486
1421109336430.00,-0.91774154,3.04392,9.671987
1421109336450.00,-0.9289682,3.0421238,9.47784
1421109336471.00,-0.9418414,2.996319,9.442215
1421109336491.00,-0.9406439,2.9142897,9.403745
1421109336512.00,-0.79005706,3.112178,9.404194
1421109336545.00,-0.9201366,3.046465,9.498049
1421109336551.00,-0.9428893,3.0609846,9.378148
1421109336571.00,-1.0065069,2.7773244,9.477093
1421109336592.00,-1.0015672,2.8292665,9.534872
1421109336618.00,-0.97492266,2.980452,9.522597
1421109336636.00,-0.99992067,3.1751971,9.481732
1421109336653.00,-0.9036708,2.9729676,9.423504
1421109336689.00,-0.9940828,2.934348,9.30959
1421109336695.00,-1.2112812,3.2078292,9.217981
1421109336714.00,-1.5091617,3.4100587,9.379346
1421109336731.00,-1.475332,3.3049772,9.428593
1421109336755.00,-1.2889695,3.1521451,9.369166
1421109336771.00,-1.335373,3.2588732,9.2681265
1421109336791.00,-1.3992902,3.2220497,9.451645
1421109336811.00,-1.4513818,3.4533188,9.490564
1421109336839.00,-1.5058686,3.4389486,9.369466
1421109336852.00,-1.7860858,3.7977526,7.909702
1421109336871.00,-1.4687457,3.474874,9.48323
1421109336902.00,-1.4485377,3.4042208,9.729467
1421109337090.00,-2.1366568,3.545527,9.442514
1421109337092.00,-1.76483,3.6974611,9.566008
1421109337093.00,-1.249302,3.5646873,9.686507
1421109337094.00,-1.0886861,3.410508,9.360485
1421109337095.00,-1.2820839,3.4545164,9.078321
1421109337095.00,-1.2949572,3.432512,9.2907295
1421109337096.00,-0.98674804,3.3229399,9.476793
1421109337097.00,-0.78975767,3.0955627,9.392518
1421109337098.00,-1.0012679,3.1895673,9.321865
1421109337098.00,-1.1039543,3.1392717,9.573193
1421109337141.00,-1.0407857,3.184927,9.830507
1421109337141.00,-1.0641371,3.1055918,9.539363
1421109337160.00,-0.9638457,3.3322206,9.491163
1421109337172.00,-0.8135582,3.1278956,9.581575
1421109337189.00,-0.8602611,3.0385313,9.51676
1421109337210.00,-0.95890594,3.021916,9.467961
1421109337232.00,-1.0196795,3.090623,9.524843
1421109337250.00,-0.7843689,3.0470636,9.567953
1421109337270.00,-0.6686595,2.7231371,9.579629
1421109337291.00,-0.5258565,2.768493,9.44955
1421109337311.00,-0.56941587,2.7497818,9.313333
1421109337330.00,-0.6882687,3.0138328,9.194031
1421109337354.00,-0.7092252,2.922223,9.198372
1421109337372.00,-0.7746391,2.8927345,9.172176
1421109337391.00,-0.87014055,2.9515622,9.445508
1421109337410.00,-0.94902647,2.9145892,9.376202
1421109337430.00,-1.0936258,2.9782069,9.558373
1421109337450.00,-0.9301657,3.1594799,9.486972
1421109337473.00,-1.0575508,3.1572344,9.350455
1421109337491.00,-0.89962924,3.2105236,9.34821
1421109337510.00,-1.0103989,3.2340248,9.3012085
1421109337534.00,-0.9898915,3.2796798,9.261091
1421109337551.00,-0.86714673,3.258424,9.333391
1421109337571.00,-0.8975336,3.1311886,9.390423
1421109337591.00,-0.9147478,3.1015503,9.619147
1421109337611.00,-0.96130097,3.1957045,9.473799
1421109337630.00,-0.9665401,3.162324,9.335936
1421109337651.00,-0.80397815,3.14017,9.382789
1421109337671.00,-0.94962525,3.1006522,9.375005
1421109337691.00,-0.8327184,3.1437626,8.763376
1421109337714.00,-1.4822177,3.5536103,9.948013
1421109337734.00,-1.0550061,3.1403196,10.017768
1421109337780.00,-0.7191046,2.9937744,9.192385
1421109337781.00,-1.0309062,3.3904495,9.372759
1421109337826.00,-1.0596465,3.4504747,9.603729
1421109337828.00,-0.9898915,3.1563363,9.540561
1421109337832.00,-0.7518864,3.0789473,9.622141
1421109337864.00,-0.8587642,3.0398786,9.4973
1421109337871.00,-0.86894304,3.1542406,9.294472
1421109337891.00,-0.8656499,3.2183075,9.425599
1421109337911.00,-1.0574012,3.027604,9.626632
1421109337942.00,-0.90980804,2.9844937,9.767938
1421109337955.00,-1.0975177,3.094066,9.518406
1421109337976.00,-1.0945239,3.3208442,9.341624
1421109337991.00,-1.0611434,3.2073803,9.244776
1421109338011.00,-1.044977,3.205584,9.284443
1421109338031.00,-1.0708731,3.2476466,9.451046
1421109338057.00,-1.0728191,3.3187487,9.249715
1421109338074.00,-0.981509,3.2226484,9.265582
1421109338090.00,-1.0346484,3.0937665,9.355246
1421109338112.00,-0.9089099,3.1082864,9.600586
1421109338131.00,-0.8107141,2.9816496,9.447155
1421109338151.00,-0.95501405,3.0496082,9.414822
1421109338172.00,-0.9792636,3.0398786,9.424103
1421109338191.00,-0.98450273,3.0750554,9.462273
1421109338212.00,-0.94708055,3.0778995,9.370364
1421109338231.00,-0.9286688,3.2825239,9.470805
1421109338251.00,-0.93256074,3.256478,9.359287
1421109338271.00,-1.0268646,3.094964,9.382789
1421109338317.00,-1.1126362,3.2913556,9.547446
1421109338318.00,-1.1416758,3.249293,9.624086
1421109338340.00,-1.2157718,3.218008,9.601034
1421109338359.00,-1.035846,3.2039373,9.446856
1421109338373.00,-1.1538006,3.2534842,9.411229
1421109338391.00,-1.1035053,3.2609687,9.368568
1421109338424.00,-1.0731184,3.1856754,9.269025
1421109338435.00,-1.0198293,3.1258,9.464519
1421109338459.00,-1.1081456,3.1754966,9.162297
1421109338471.00,-1.2099339,3.1364279,9.2311535
1421109338492.00,-1.207539,3.253634,9.464668
1421109338525.00,-1.2240046,3.3033307,9.577085
1421109338541.00,-1.2564871,3.2567775,9.393866
1421109338563.00,-1.2427157,3.2442036,9.368867
1421109338572.00,-1.1693683,3.0701156,9.51691
1421109338591.00,-1.0111473,3.2498918,9.557176
1421109338619.00,-1.194965,3.1629226,9.469459
1421109338637.00,-1.429677,3.2611184,9.407337
1421109338650.00,-1.3552817,3.180137,9.229208
1421109338671.00,-1.255589,3.2449522,9.296119
1421109338691.00,-1.142574,3.3362622,9.44431
1421109338713.00,-1.3934523,3.2093263,9.525742
1421109338732.00,-1.3001962,3.3834143,9.399703
1421109338751.00,-1.5299684,3.3763788,9.541907
1421109338771.00,-1.3913567,3.3548236,9.570947
1421109338792.00,-1.2115805,3.329676,9.397458
1421109338811.00,-1.1526031,3.3069232,9.3470125
1421109338833.00,-1.2548405,3.3229399,9.278007
1421109338851.00,-1.1867322,3.3422499,9.364676
1421109338871.00,-1.2144246,3.2275882,9.385782
1421109338897.00,-1.1943663,3.3223412,9.275013
1421109338911.00,-1.2723541,3.28926,9.200317
1421109338933.00,-1.2037967,3.2356713,9.129964
1421109338952.00,-1.3169614,3.2250435,9.313782
1421109338971.00,-1.319057,3.406017,9.308094
1421109338991.00,-1.1825409,3.227738,9.494307
1421109339013.00,-1.1946657,3.1145732,9.427546
1421109339031.00,-1.215173,3.2135174,9.363778
1421109339064.00,-1.1674223,3.3263826,9.2890835
1421109339072.00,-1.283431,3.2819252,9.389225
1421109339091.00,-1.3606704,3.185825,9.370664
1421109339111.00,-1.2681628,3.2644117,9.49221
1421109339130.00,-1.3163626,3.238665,9.217981
1421109339153.00,-1.4959891,3.5103502,8.396789
1421109339172.00,-1.6795075,3.2156131,10.082284
1421109339200.00,-1.2211605,3.1340327,9.545051
1421109339223.00,-1.4064752,3.2943494,9.470805
1421109339233.00,-1.4034815,3.4759219,9.43024
1421109339250.00,-1.2981006,3.2795303,9.518406
1421109339278.00,-1.2921131,3.2612681,9.38189
1421109339292.00,-1.0966196,3.4001794,9.187894
1421109339311.00,-1.0458751,3.2669563,9.132659
1421109339331.00,-1.2008029,3.0452673,9.340876
1421109339351.00,-1.0285112,3.073259,9.571546
1421109339374.00,-1.1133847,3.0235624,9.692644
1421109339393.00,-1.1374846,3.1365774,9.595646
1421109339413.00,-1.0677296,3.0599368,9.328451
1421109339432.00,-1.0669812,3.194956,9.34357
1421109339452.00,-1.1087444,3.3283286,9.340277
1421109339471.00,-0.9473799,3.413352,9.298364
1421109339493.00,-0.9674382,3.420986,9.235495
1421109339513.00,-1.1056008,3.3432975,9.433533
1421109339531.00,-1.0767109,3.104993,9.499695
1421109339553.00,-0.9424402,3.2635136,9.438173
1421109339571.00,-0.9222322,3.2283366,9.30046
1421109339591.00,-0.8705896,3.1621742,9.289533
1421109339612.00,-0.8205936,3.0572424,9.365424
1421109339631.00,-0.9922865,3.0828393,9.338929
1421109339651.00,-0.9735754,3.171006,9.407487
1421109339671.00,-1.008902,3.1205606,9.5351715
1421109339693.00,-1.0214758,3.28432,9.462273
1421109339713.00,-1.0518626,3.1737003,9.393716
1421109339731.00,-1.0051597,3.1067894,9.45883
1421109339751.00,-0.979563,3.249293,9.454639
1421109339771.00,-0.9648935,3.1648686,9.534123
1421109339791.00,-0.9461824,3.1359787,9.459129
1421109339811.00,-0.88960004,3.1668146,9.417516
1421109339834.00,-0.97432387,3.170407,9.48278
1421109339851.00,-1.0213262,3.1626234,9.443263
1421109339871.00,-0.9169931,3.0614338,9.4494
1421109339891.00,-0.7909552,3.059338,9.50209
1421109339911.00,-0.8421487,3.2184572,9.383686
1421109339933.00,-0.8960367,3.2858171,9.306447
1421109339953.00,-0.6990463,3.3177009,9.38713
1421109339978.00,-0.73048097,3.2683036,9.287137
1421109339994.00,-0.90307206,3.1976504,9.515113
1421109340012.00,-0.8650511,3.1787896,9.430389
1421109340031.00,-0.8906479,3.0379326,9.571695
1421109340051.00,-0.8384065,3.2165112,9.474997
1421109340071.00,-0.9273216,3.2838712,9.416019
1421109340091.00,-1.011297,3.2633638,9.487421
1421109340112.00,-0.8837622,3.2712972,9.483978
1421109340142.00,-0.89259386,3.257975,9.262139
1421109340151.00,-0.9517209,3.3250356,9.336235
1421109340173.00,-0.8125104,3.4158967,9.331295
1421109340191.00,-0.75053924,3.319497,9.405092
1421109340212.00,-0.87133807,3.1126273,9.613159
1421109340232.00,-0.75203615,3.086282,9.427096
1421109340255.00,-0.6752458,3.1391222,9.331594
1421109340277.00,-0.7250922,3.001708,9.174272
1421109340295.00,-0.6319858,3.108885,9.363778
1421109340311.00,-0.67868865,2.9774582,9.400751
1421109340331.00,-0.8361612,3.1097832,9.4242525
1421109340351.00,-0.81700104,3.2081287,9.474547
1421109340371.00,-0.8945398,3.1148727,9.609567
1421109340391.00,-0.9086105,3.184927,9.618998
1421109340411.00,-0.85113007,3.2311807,9.58397
1421109340431.00,-0.8493338,3.343148,9.36258
1421109340451.00,-0.8890013,3.412753,9.437574
1421109340472.00,-0.7617659,3.3337176,9.471853
1421109340491.00,-0.7114705,3.121459,9.561816
1421109340514.00,-0.70832705,3.0596375,9.449999
1421109340533.00,-0.6167175,3.1379247,9.530231
1421109340553.00,-0.6268964,3.0581405,9.309291
1421109340576.00,-0.70802766,3.0292506,9.259894
1421109340597.00,-0.69096315,3.2476466,9.332493
1421109340639.00,-0.7526349,3.058889,9.376801
1421109340640.00,-0.694406,3.0668225,9.44461
1421109340654.00,-0.84065187,3.200794,9.577234
1421109340672.00,-0.95725936,3.2674055,9.499546
1421109340692.00,-0.9104068,3.2665071,9.482331
1421109340713.00,-0.8095166,3.218607,9.553883
1421109340732.00,-0.7774832,3.1681619,9.5452
1421109340752.00,-0.7740404,3.1275961,9.538015
1421109340772.00,-0.91639435,3.248844,9.559122
1421109340792.00,-0.86041075,3.1347811,9.539662
1421109340811.00,-0.7515871,3.1466067,9.596844
1421109340832.00,-0.8018825,3.2260914,9.31483
1421109340851.00,-0.6730005,3.1844778,9.325607
1421109340873.00,-0.7018904,3.1657667,9.435329
1421109340892.00,-0.8205936,3.1916628,9.482032
1421109340912.00,-0.8613089,3.1817834,9.511221
1421109340932.00,-0.87148774,3.1202614,9.4877205
1421109340952.00,-0.7063811,3.0831385,9.466464
1421109340971.00,-0.77673477,3.1331346,9.426348
1421109340993.00,-0.7032376,3.0990057,9.273965
1421109341012.00,-0.85217786,3.2189062,9.340876
1421109341032.00,-0.8804691,3.264711,9.520652
1421109341053.00,-0.7526349,3.3265324,9.403745
1421109341072.00,-0.85247725,3.3263826,9.339079
1421109341093.00,-0.77613604,3.093018,9.460627
1421109341112.00,-0.83631086,3.1716046,9.474248
1421109341132.00,-0.88451064,3.3415012,9.421108
1421109341161.00,-0.728535,3.2308815,9.438922
1421109341175.00,-0.6800358,3.1530433,9.428892
1421109341191.00,-0.6593788,3.1198123,9.423803
1421109341212.00,-0.7180568,3.0249097,9.371712
1421109341232.00,-0.80936694,3.2479458,9.394315
1421109341252.00,-0.9119037,3.2442036,9.562116
1421109341272.00,-0.99198717,3.213817,9.518107
1421109341291.00,-0.947829,3.134482,9.376053
1421109341313.00,-0.8081694,3.182981,9.467362
1421109341332.00,-0.68662214,3.165168,9.442365
1421109341351.00,-0.633782,3.258424,9.285641
1421109341372.00,-0.8307724,3.235372,9.341924
1421109341392.00,-0.9352551,3.203189,9.370514
1421109341412.00,-0.9086105,3.0841863,9.494756
1421109341432.00,-0.8027806,3.0496082,9.530381
1421109341453.00,-0.9159453,3.1204112,9.572743
1421109341472.00,-0.89513856,3.2144156,9.404344
1421109341495.00,-0.88196594,2.9885354,9.436526
1421109341540.00,-0.9421408,3.2174094,9.41078
1421109341547.00,-0.89962924,3.2578254,9.538465
1421109341551.00,-0.6566844,3.243605,9.374705
1421109341602.00,-0.8044272,3.3265324,9.540859
1421109341602.00,-0.8937914,3.2165112,9.663156
1421109341641.00,-0.875679,3.2461495,9.612411
1421109341642.00,-0.7450008,3.0124855,9.634564
1421109341652.00,-0.7807764,3.0500574,9.445209
1421109341705.00,-0.73856413,3.0868807,9.527537
1421109341706.00,-0.683329,3.0216165,9.368419
1421109341714.00,-0.81191164,2.939138,9.461525
1421109341736.00,-0.7632628,3.1906152,9.443263
1421109341761.00,-0.8533754,3.0915213,9.34836
1421109341777.00,-0.82238984,3.067571,9.361682
1421109341809.00,-0.88630694,3.0750554,9.442664
1421109341817.00,-0.9595047,3.1998959,9.433832
1421109341839.00,-0.9237291,3.4235308,9.258397
1421109341871.00,-0.9779164,3.2793806,9.256002
1421109341872.00,-0.89962924,3.3088691,9.802964
1421109341900.00,-0.7382648,3.1413674,9.99262
1421109341911.00,-0.8601114,2.9898825,9.905951
1421109341955.00,-0.71221894,3.2525861,9.900112
1421109341955.00,-0.4698729,2.9933252,9.702074
1421109341986.00,-0.32048357,2.8900402,9.194031
1421109341991.00,-0.4778064,3.127147,9.426198
1421109342022.00,-0.6110294,3.3236883,9.861044
1421109342031.00,-0.1607657,2.9937744,8.890761
1421109342054.00,-0.22079086,3.0461655,8.483908
1421109342085.00,-0.10627899,3.3196468,8.700956
1421109342091.00,-0.1513353,3.2650104,8.688232
1421109342111.00,-0.044008482,2.989583,9.120983
1421109342132.00,-0.16046631,3.140619,9.098979
1421109342150.00,-0.15432908,3.4109569,9.788594
1421109342170.00,-0.028291168,3.218008,10.222841
1421109342191.00,-0.42242157,3.4477804,10.042316
1421109342211.00,-0.51403105,3.488795,8.934321
1421109342232.00,-0.27692413,3.3025823,8.189021
1421109342252.00,-0.19579285,2.6708958,9.257648
1421109342271.00,0.23246658,2.372117,10.370135
1421109342315.00,-0.2933899,2.3400838,9.286838
1421109342316.00,-0.3821553,2.8333082,9.3630295
1421109342333.00,0.22079086,2.491868,10.037827
1421109342351.00,0.62734544,2.6021888,9.599238
1421109342376.00,0.46927413,3.0832882,9.814041
1421109342392.00,0.11002121,3.8344262,9.481583
1421109342416.00,0.08202942,3.8064344,10.142758
1421109342434.00,0.40939865,3.4151483,9.782008
1421109342452.00,1.0062076,3.1307397,10.347682
1421109342475.00,1.3162129,2.8494744,10.721604
1421109342495.00,1.2668157,3.0139823,10.061477
1421109342515.00,1.561403,3.099754,8.705148
1421109342535.00,1.7134868,3.7034485,6.8135314
1421109342552.00,1.0937755,3.6899767,7.146888
1421109342572.00,0.7738907,3.7570372,8.483009
1421109342729.00,0.6800358,3.7550912,8.069869
1421109342730.00,1.094973,3.4587076,8.493188
1421109342731.00,1.0127939,3.2461495,8.37209
1421109342732.00,1.4926959,2.945874,8.611143
1421109342733.00,1.7432748,2.8216324,9.167386
1421109342734.00,1.3230987,2.979105,9.32426
1421109342735.00,1.4242882,2.7884016,9.92047
1421109342736.00,1.468596,2.6177564,8.612191
1421109342758.00,1.4867084,2.5057893,7.274872
1421109342839.00,1.5350578,3.432063,8.968001
1421109342840.00,1.9589763,3.2822247,9.447155
1421109342840.00,2.2655387,2.1951852,8.146359
1421109342841.00,1.5864011,1.4834152,8.981623
1421109342874.00,1.167572,1.0985656,9.672735
1421109342874.00,1.0633887,1.1987072,9.789043
1421109342891.00,0.850681,1.7693207,11.376343
1421109342911.00,0.5733078,2.2537134,11.530672
1421109342935.00,0.14789246,2.2195845,9.985735
1421109342953.00,-0.5034032,1.9179616,8.414452
1421109342972.00,-0.61552,1.8166223,10.960507
1421109342992.00,-0.107027434,2.3117926,7.755223
1421109343014.00,-0.52855086,3.44793,7.2717285
1421109343031.00,-0.1115181,4.3248067,7.717651
1421109343053.00,-6.4595175,7.38145,12.882062
1421109343073.00,-2.2363496,4.7892904,7.188801
1421109343092.00,0.35401383,3.031945,6.119574
1421109343112.00,-0.80742097,2.9114456,8.913664
1421109343140.00,-1.1984079,2.4206164,9.698482
1421109343151.00,-0.72539157,2.7175987,7.1431456
1421109343175.00,2.4776478,1.269061,7.846982
1421109343192.00,1.386866,1.4350657,8.899593
1421109343211.00,2.8333082,2.26494,9.1958275
1421109343231.00,2.2718258,1.8916163,8.139624
1421109343252.00,0.66252226,0.13067825,8.9039345
1421109343277.00,-0.44786865,-0.4803511,11.335029
1421109343366.00,1.3331277,0.20537293,9.312285
1421109343370.00,2.2643414,2.8412416,3.6290534
1421109343371.00,0.97492266,2.0263362,3.701802
1421109343375.00,-0.5037025,-0.14160553,6.4875093
1421109343376.00,0.104333036,-0.58213943,10.143208
1421109343392.00,1.5889457,-1.4088702,9.967024
1421109343414.00,3.4015265,-1.4528787,7.902367
1421109343432.00,5.557493,-1.1391312,6.791078
1421109343452.00,7.6501412,-0.98225737,7.5525446
1421109343472.00,8.151749,-1.2428654,9.078172
1421109343492.00,8.653056,-1.6597486,11.250305
1421109343555.00,10.774744,-1.9814296,10.279124
1421109343556.00,11.362721,-1.6256195,8.75694
1421109343557.00,12.1026325,-2.237996,8.60306
1421109343579.00,14.022091,-2.411635,8.545131
1421109343595.00,15.653548,-2.4171734,8.507709
1421109343632.00,15.139816,-1.866768,5.2576666
1421109343634.00,12.379257,-2.0592678,1.247356
1421109343661.00,11.512111,-2.5560846,3.9079235
1421109343682.00,10.759775,-4.0362067,5.8059764
1421109343694.00,11.026819,-3.750002,5.3452344
1421109343713.00,10.85378,-3.1798375,4.6340632
1421109343732.00,9.876013,-1.8781444,0.24848327
1421109343752.00,7.7342663,-1.8836828,2.740052
1421109343772.00,3.795657,-2.4388783,3.2241454
1421109343796.00,1.6823516,-2.950664,3.8278399
1421109343814.00,1.866768,-4.1170387,0.23471192
1421109343834.00,2.801125,-3.151696,-3.106041
1421109343855.00,5.7184086,-3.0144315,-2.3468199
1421109343872.00,10.431059,-3.156037,-1.1936178
1421109343894.00,10.717413,-1.9354751,-0.008831634
1421109343912.00,8.945847,-1.1030562,1.0099498
1421109343932.00,7.2712793,-3.0407767,-1.8290465
1421109343956.00,5.141059,-5.9281225,-1.3016931
1421109343974.00,4.502487,-7.310947,1.7760566
1421109344014.00,6.3839245,-9.001382,-0.45265868
1421109344017.00,6.6556096,-7.8704834,0.31464568
1421109344033.00,8.727002,-7.8396473,0.38110748
1421109344054.00,4.981491,-7.8362045,-0.09116043
1421109344073.00,2.45729,-8.682245,1.5655943
1421109344101.00,3.4844542,-9.008267,-2.3352938
1421109344113.00,4.793482,-9.470057,-2.9557536
1421109344138.00,4.8451247,-9.128767,-1.051713
1421109344153.00,6.220315,-8.79032,-0.7020401
1421109344182.00,5.1759367,-8.240813,-2.7128086
1421109344214.00,0.1393602,-11.1039095,-2.49576
1421109344218.00,-1.5326629,-12.498709,-0.55938673
1421109344234.00,2.592459,-9.221274,-1.6429834
1421109344252.00,4.341572,-9.661658,-0.25177643
1421109344273.00,2.8581564,-9.322015,-0.67195266
1421109344294.00,2.5939558,-9.011261,-0.0092807
1421109344428.00,1.0794053,4.0162983,4.7593527
1421109344429.00,0.100291446,-2.3742127,-2.9614418
1421109344442.00,0.9824071,0.40430924,-4.5399094
1421109344460.00,-2.382296,-8.815168,0.18606308
1421109344461.00,-1.0565029,-12.463383,3.6501594
1421109344468.00,-0.945434,-15.663278,-3.2433054
1421109344475.00,-1.5714322,-8.781938,-8.258327
1421109344492.00,0.28770173,-4.052373,-4.739594
1421109344493.00,0.85562074,-3.4271233,0.49591872
1421109344494.00,0.7927515,-4.2689724,3.4379008
1421109344578.00,0.4593947,-9.015153,4.36148
1421109344585.00,-7.688911,-17.558487,0.82972455
1421109344594.00,-5.670059,-19.305954,4.553381
1421109344597.00,-3.7928128,-8.267608,-0.6779402
1421109344640.00,-4.556375,-4.833449,-2.7792704
1421109344642.00,-3.3997302,-8.98761,-2.035168
1421109344644.00,-2.4156766,-9.412577,1.5736775
1421109344658.00,-2.4101381,-9.580677,1.3503419
1421109344676.00,-2.0826192,-9.43488,0.3171904
1421109344694.00,-1.9664607,-9.416319,-0.2680925
1421109344721.00,-1.6313077,-9.7779665,-0.08906479
1421109344735.00,-1.4003379,-9.904304,0.016615449
1421109344756.00,-0.40924895,-9.588311,0.33679962
1421109344773.00,-0.7032376,-9.724977,0.035326537
1421109344818.00,-2.2207818,-9.605675,-0.2481839
1421109344825.00,-2.3975642,-9.734108,-0.49023056
1421109344834.00,-2.5518932,-9.627829,0.30057496
1421109344852.00,-2.5652156,-9.196725,1.283431
1421109344872.00,-2.2843995,-9.061257,0.92118436
1421109344892.00,-2.7403514,-9.334888,0.28695327
1421109344913.00,-3.5380425,-9.393566,-0.70428544
1421109344932.00,-3.766767,-9.276659,-0.49801436
1421109344952.00,-3.2245944,-9.351354,0.50385225
1421109344974.00,-2.4084916,-9.548493,0.92747134
1421109344995.00,-1.7654288,-9.508227,0.9036708
1421109345015.00,-1.5015275,-9.091793,0.25372237
1421109345032.00,-1.7799486,-9.392967,-0.3716771
1421109345077.00,-1.9529887,-9.647438,-1.3000466
1421109345078.00,-2.362088,-9.297017,-1.0036628
1421109345093.00,-2.2826033,-8.906329,-0.2561174
1421109345128.00,-1.5319144,-9.139395,0.3568579
1421109345135.00,-1.0743159,-9.333092,0.4367917
1421109345152.00,-1.3545332,-9.828113,0.71790713
1421109345172.00,-1.5861017,-9.999506,1.1404784
1421109345192.00,-2.5268953,-9.865385,0.70009416
1421109345213.00,-2.6081762,-9.672885,0.63557833
1421109345239.00,-2.922822,-9.539812,-0.084723815
1421109345252.00,-2.955005,-9.126821,-0.45086244
1421109345277.00,-2.6430538,-9.469757,-0.4674779
1421109345297.00,-1.8003062,-9.763297,-0.024099885
1421109345313.00,-0.6959029,-9.17996,0.11855347
1421109345339.00,-0.7152127,-9.037756,-0.75368273
1421109345354.00,-0.09610016,-9.988429,0.14699432
1421109345373.00,0.260159,-10.9825115,0.97312635
1421109345392.00,0.9108559,-11.309432,1.9296373
1421109345414.00,-4.026477,-10.571616,-2.5312362
1421109345433.00,-5.831573,-6.658603,-6.4921494
1421109345452.00,-4.403094,-7.1289253,-3.472928
1421109345472.00,-3.5756145,-8.798254,0.18381774
1421109345492.00,-3.1841784,-10.864408,1.4274316
1421109345513.00,-3.026706,-10.844049,-1.9580781
1421109345532.00,-2.792443,-10.032138,-3.1437626
1421109345553.00,-2.6791286,-9.628128,-1.8049465
1421109345572.00,-2.4803421,-9.579779,-0.74395293
1421109345592.00,-2.4526496,-9.682765,-0.57510406
1421109345613.00,-1.8732047,-9.606873,-0.6399193
1421109345633.00,-0.96923447,-9.831256,-0.4658313
1421109345656.00,-0.7044351,-10.311158,-0.016615449
1421109345673.00,-0.9678873,-10.265503,-0.019459534
1421109345692.00,-1.2073892,-7.56407,-0.8292755
1421109345712.00,-3.013234,-8.178991,-0.6888675
1421109345735.00,-3.9660027,-9.631421,0.8467891
1421109345753.00,-4.350703,-10.371034,1.7721648
1421109345773.00,-4.251459,-10.512789,0.57106245
1421109345793.00,-2.6945467,-8.918903,-2.631827
1421109345813.00,-2.3330483,-7.5631723,-3.267106
1421109345833.00,-3.0537996,-9.469459,-0.82523394
1421109345853.00,-3.0537996,-10.804532,1.612896
1421109345874.00,-2.523153,-10.058483,0.12169693
1421109345892.00,-1.4606625,-8.051606,-1.7143849
1421109345916.00,-1.3495935,-8.545131,-0.8255333
1421109345933.00,-1.5202386,-8.952434,0.07229965
1421109345952.00,-0.79484713,-9.05961,0.7291338
1421109345974.00,0.22677842,-9.755663,0.16106506
1421109345992.00,1.3600717,-10.476115,-0.2868036
1421109346013.00,-0.31823823,-9.98289,-0.58872575
1421109346032.00,-2.0640578,-9.129515,-0.35865417
1421109346054.00,-2.4851322,-9.06455,-0.12783417
1421109346072.00,-2.0866609,-9.30061,-0.79140425
1421109346092.00,-2.066902,-9.594748,-1.4504837
1421109346114.00,-2.6511369,-9.483679,-1.3296849
1421109346133.00,-3.8666093,-9.445807,-1.64463
1421109346153.00,-4.884792,-9.595346,-2.4836352
1421109346173.00,-4.8674283,-9.536968,-2.2324576
1421109346192.00,-4.139642,-9.565558,-2.0775297
1421109346212.00,-3.09212,-9.095835,-1.8200651
1421109346237.00,-2.7240353,-8.775052,-1.3358221
1421109346252.00,-2.834805,-9.212592,-0.6816824
1421109346273.00,-2.5759933,-10.061926,-0.09759705
1421109346292.00,-2.2417383,-10.1706,-0.1366658
1421109346315.00,-2.5252488,-9.445209,-0.7081773
1421109346333.00,-3.2204032,-9.277857,-1.0127939
1421109346353.00,-3.9664516,-9.537716,-1.019979
1421109346372.00,-4.932992,-9.109607,-0.6888675
1421109346392.00,-4.634213,-8.868907,-0.25806335
1421109346416.00,-4.175866,-9.009464,0.17543519
1421109346432.00,-3.5262172,-8.976084,0.15238312
1421109346452.00,-3.2828233,-9.032816,-0.14684464
1421109346472.00,-2.9451256,-9.263637,-0.35206786
1421109346492.00,-2.8476782,-9.194929,-0.060025178
1421109346513.00,-2.7514284,-9.559272,0.20417541
1421109346532.00,-2.8026218,-9.505533,0.066461794
1421109346553.00,-2.5339308,-9.470206,-0.46867537
1421109346573.00,-2.3677762,-9.376651,-0.7259903
1421109346593.00,-2.546804,-9.384285,-0.40026763
1421109346612.00,-2.906057,-9.551488,-0.16959733
1421109346632.00,-3.3983831,-9.335337,0.06915619
1421109346652.00,-3.5188825,-9.178762,0.11825409
1421109346673.00,-3.50077,-9.414672,0.25671616
1421109346692.00,-3.4208364,-9.375753,0.2255809
1421109346713.00,-3.2202535,-9.136102,0.24893235
1421109346733.00,-2.6168582,-9.322165,0.31808853
1421109346752.00,-2.437082,-9.563762,0.0968486
1421109346775.00,-2.566862,-9.4369755,0.050894164
1421109346797.00,-2.4725583,-9.490714,0.11825409
1421109346817.00,-2.5997937,-9.343121,0.10897339
1421109346832.00,-2.5382717,-9.450598,0.010478211
1421109346858.00,-2.5638685,-9.51676,-0.1790277
1421109346883.00,-2.7137067,-9.384884,-0.007484436
1421109346894.00,-2.7818153,-9.296718,-0.017064514
1421109346913.00,-2.9767098,-9.334739,-0.028740235
1421109346932.00,-3.031945,-9.401799,0.0809816
1421109346952.00,-2.9475205,-9.328601,0.2969824
1421109346973.00,-2.9457242,-9.418863,0.15822098
1421109346992.00,-2.6619146,-9.534123,0.07020401
1421109347013.00,-2.7580147,-9.4012,0.009879456
1421109347033.00,-2.7978318,-9.236692,0.001796265
1421109347052.00,-2.775229,-9.332343,0.122145995
1421109347074.00,-2.7418482,-9.3751545,0.2891986
1421109347093.00,-2.7422974,-9.533375,0.24623795
1421109347113.00,-2.39472,-9.422306,-0.07125183
1421109347133.00,-2.3061044,-9.4981985,-0.19609222
1421109347154.00,-2.459236,-9.605675,-0.105829924
1421109347177.00,-2.6238935,-9.438473,-0.085322574
1421109347193.00,-2.7451415,-9.403146,-0.11376343
1421109347213.00,-3.0091925,-9.544601,-0.1963916
1421109347235.00,-3.182382,-9.490714,-0.27318192
1421109347253.00,-3.0799952,-9.405092,-0.02005829
1421109347273.00,-3.1674132,-9.149873,0.17588425
1421109347293.00,-2.9397368,-9.112151,0.24429199
1421109347313.00,-2.803071,-9.179511,0.07409592
1421109347332.00,-2.630929,-9.354497,0.028440857
1421109347352.00,-2.53902,-9.281599,0.18755996
1421109347373.00,-2.780468,-9.143586,0.09654923
1421109347393.00,-2.7601104,-9.302256,0.005388794
1421109347414.00,-2.7385552,-9.370963,-0.061671752
1421109347433.00,-2.928061,-9.169782,-0.07125183
1421109347452.00,-2.981949,-9.259595,-0.15881974
1421109347473.00,-2.8858488,-9.400901,-0.2402504
1421109347494.00,-2.8509715,-9.466464,-0.35072067
1421109347516.00,-2.8446844,-9.383836,-0.398172
1421109347533.00,-2.8656409,-9.462273,-0.20866607
1421109347553.00,-2.8080108,-9.436077,-0.28081605
1421109347573.00,-2.7619066,-9.283395,-0.18755996
1421109347593.00,-2.7711873,-9.515562,-0.1419049
1421109347613.00,-2.9087512,-9.469159,-0.138013
1421109347633.00,-2.9981153,-9.389225,-0.013471985
1421109347653.00,-2.9933252,-9.297765,-0.042361908
1421109347673.00,-3.1343322,-9.131761,0.067060545
1421109347693.00,-3.1481035,-9.421557,0.138013
1421109347713.00,-3.1301408,-9.385483,0.26285338
1421109347735.00,-3.1467562,-9.264684,0.31808853
1421109347752.00,-3.0994546,-9.179361,0.298629
1421109347772.00,-2.906955,-9.29028,0.21330643
1421109347794.00,-2.7461894,-9.372161,0.24519013
1421109347812.00,-2.804418,-9.191037,0.29578492
1421109347832.00,-2.891537,-9.218131,0.26554778
1421109347854.00,-2.8538156,-9.374855,0.14534774
1421109347873.00,-2.8897407,-9.44461,0.1445993
1421109347893.00,-2.9144394,-9.229358,2.99E-04
1421109347914.00,-2.800227,-9.318572,-0.061821442
1421109347932.00,-2.7156527,-9.544153,-0.047151946
1421109347952.00,-2.6979895,-9.588611,0.17393829
1421109347972.00,-2.7476861,-9.43518,0.07529343
1421109347992.00,-2.9936247,-9.417815,0.13651611
1421109348013.00,-2.9065058,-9.349408,-0.0742456
1421109348033.00,-2.9403355,-9.372459,0.03592529
1421109348055.00,-3.0481114,-9.35315,0.13771363
1421109348081.00,-3.0722113,-9.370364,0.29234207
1421109348095.00,-3.0678704,-9.345816,0.3876938
1421109348113.00,-3.0696666,-9.224268,0.06780899
1421109348133.00,-2.9291089,-9.293873,-0.009580079
1421109348153.00,-3.0087433,-9.368269,-0.1167572
1421109348176.00,-2.80352,-9.428444,0.121098176
1421109348193.00,-3.0514045,-9.334888,0.30416748
1421109348213.00,-3.0886772,-9.314231,0.214953
1421109348233.00,-3.0446687,-9.329799,0.24519013
1421109348253.00,-3.1734009,-9.241333,0.2523752
1421109348272.00,-3.1482532,-9.288634,0.18621276
1421109348293.00,-3.2009437,-9.265432,0.18396744
1421109348313.00,-3.1799872,-9.215735,0.2201921
1421109348333.00,-3.17385,-9.297466,0.22123992
1421109348353.00,-3.1722033,-9.2681265,0.22183868
1421109348373.00,-3.1524444,-9.342223,0.2507286
1421109348393.00,-3.1980996,-9.347312,0.13681549
1421109348417.00,-3.1211596,-9.432186,0.20612137
1421109348436.00,-3.1235545,-9.325308,0.036823425
1421109348455.00,-3.0919702,-9.356593,0.28590545
1421109348475.00,-3.0964608,-9.345816,0.40026763
1421109348497.00,-3.1913636,-9.278605,0.44756928
1421109348513.00,-3.2054343,-9.197623,0.4312532
1421109348533.00,-3.1883698,-9.195079,0.39712417
1421109348553.00,-3.2316298,-9.304202,0.407303
1421109348573.00,-3.151247,-9.306297,0.2694397
1421109348593.00,-3.1472054,-9.404044,0.28710297
1421109348613.00,-3.1255004,-9.384884,0.27018815
1421109348635.00,-3.1383736,-9.259445,0.4071533
1421109348665.00,-3.1442115,-9.352252,0.4324507
1421109348674.00,-3.0106893,-9.1958275,0.34697846
1421109348693.00,-3.0647268,-9.297615,0.40969804
1421109348713.00,-3.1177168,-9.144184,0.48514116
1421109348733.00,-3.2618668,-9.342373,0.29623398
1421109348753.00,-3.1754966,-9.403146,0.23785537
1421109348774.00,-3.0258079,-9.399853,0.13277389
1421109348793.00,-3.0151799,-9.416319,0.28830048
1421109348813.00,-3.0038035,-9.31483,0.31479537
1421109348834.00,-3.1418166,-9.282796,0.25402176
1421109348854.00,-3.078199,-9.303453,0.38709503
1421109348873.00,-3.1223571,-9.336385,0.40026763
1421109348893.00,-3.0398786,-9.29043,0.3820056
1421109348913.00,-3.0024564,-9.337283,0.49008086
1421109348934.00,-2.9741652,-9.234447,0.44741958
1421109348953.00,-3.1240036,-9.354347,0.30401778
1421109348979.00,-3.0262568,-9.430389,0.24983047
1421109349010.00,-3.0253587,-9.360036,0.25970992
1421109349015.00,-3.020868,-9.356593,0.30102402
1421109349033.00,-2.9292586,-9.358239,0.29009673
1421109349053.00,-2.9512627,-9.457034,0.2830614
1421109349080.00,-2.946772,-9.36258,0.20582199
1421109349093.00,-3.0111382,-9.3536,0.2959346
1421109349115.00,-2.972818,-9.313482,0.29907808
1421109349135.00,-3.0509555,-9.250164,0.366438
1421109349235.00,-3.1775923,-9.221873,0.41837996
1421109349236.00,-3.0505064,-9.288185,0.4872368
1421109349237.00,-3.1578333,-9.353898,0.40820113
1421109349238.00,-3.0657747,-9.3613825,0.5376819
1421109349239.00,-3.0653257,-9.293873,0.4349954
1421109349253.00,-3.1063404,-9.272917,0.4340973
1421109349273.00,-3.0258079,-9.386531,0.41927812
1421109349298.00,-3.035837,-9.427546,0.40954834
1421109349313.00,-3.0115874,-9.32396,0.35416353
1421109349334.00,-3.031496,-9.448202,0.16375946
1421109349356.00,-2.9753628,-9.370514,0.3293152
1421109349374.00,-3.099754,-9.270822,0.3435356
1421109349394.00,-3.0223649,-9.273366,0.26779312
1421109349415.00,-3.0581405,-9.268576,0.40670425
1421109349435.00,-3.1014006,-9.282048,0.32317793
1421109349455.00,-2.9936247,-9.199719,0.22737716
1421109349475.00,-2.9413834,-9.337732,0.22947282
1421109349546.00,-2.9984148,-9.346115,0.42930725
1421109349547.00,-3.1341825,-9.273815,0.4619394
1421109349548.00,-3.0133836,-9.311088,0.41643402
1421109349553.00,-3.1130762,-9.222173,0.24863297
1421109349574.00,-2.9184809,-9.2730665,0.3186873
1421109349594.00,-3.0225146,-9.272018,0.29803026
1421109349613.00,-3.0076954,-9.437125,0.30311966
1421109349634.00,-2.9602442,-9.411978,0.33635056
1421109349654.00,-3.0427227,-9.308693,0.45340714
1421109349673.00,-2.9879365,-9.478739,0.31000534
1421109349694.00,-3.0572424,-9.330098,0.32721955
1421109349714.00,-3.102748,-9.307795,0.45056304
1421109349733.00,-3.0184731,-9.150921,0.32467484
1421109349753.00,-2.9529095,-9.215735,0.3625461
1421109349773.00,-2.965184,-9.345067,0.42257127
1421109349846.00,-3.0190718,-9.364227,0.4552034
1421109349855.00,-3.0885274,-9.272468,0.32078293
1421109349859.00,-3.0207183,-9.27636,0.3251239
1421109349860.00,-3.0308971,-9.26663,0.26899064
1421109349873.00,-3.1015503,-9.285491,0.3240761
1421109349895.00,-3.0731094,-9.389524,0.26210496
1421109349913.00,-3.1106813,-9.34342,0.41209304
1421109349934.00,-3.1907647,-9.413774,0.50744474
1421109349954.00,-3.1193633,-9.429491,0.55863833
1421109349974.00,-3.1481035,-9.292826,0.38185593
1421109349995.00,-3.1734009,-9.323213,0.37586838
1421109350014.00,-3.023263,-9.185798,0.33739838
1421109350033.00,-3.107987,-9.219028,0.33949402
1421109350055.00,-3.0919702,-9.333691,0.20567231
1421109350073.00,-3.24121,-9.33414,0.33200958
1421109350093.00,-3.1490016,-9.310489,0.36688706
1421109350158.00,-3.1184652,-9.225765,0.40161484
1421109350159.00,-3.2061827,-9.237591,0.39248383
1421109350160.00,-3.1524444,-9.38683,0.32602203
1421109350181.00,-3.147804,-9.350156,0.23845413
1421109350193.00,-3.1807356,-9.453741,0.15612534
1421109350213.00,-3.161725,-9.326506,0.3302133
1421109350233.00,-3.2457006,-9.234147,0.39233413
1421109350258.00,-3.1900163,-9.086105,0.4646338
1421109350273.00,-3.162324,-9.250613,0.37646714
1421109350294.00,-3.0174253,-9.286388,0.20552261
1421109350313.00,-2.910248,-9.527687,0.27916947
1421109350333.00,-2.9530592,-9.326506,0.3240761
1421109350355.00,-3.106041,-9.303753,0.2829117
1421109350373.00,-3.034789,-9.441766,0.27961853
1421109350394.00,-2.9897327,-9.30016,0.26524842
1421109350416.00,-3.0841863,-9.419462,0.26854157
1421109350433.00,-3.1452594,-9.354347,0.34548157
1421109350517.00,-3.165617,-9.360635,0.28889924
1421109350518.00,-3.0398786,-9.137748,0.2971321
1421109350520.00,-3.0928683,-9.303004,0.3107538
1421109350521.00,-3.1005025,-9.307795,0.3927832
1421109350538.00,-3.1928604,-9.302106,0.45550278
1421109350553.00,-3.167114,-9.355695,0.35102004
1421109350574.00,-3.035388,-9.236243,0.24788453
1421109350594.00,-3.272345,-9.406738,0.3143463
1421109350614.00,-3.2636633,-9.39656,0.32093263
1421109350636.00,-3.095413,-9.16589,0.37003052
1421109350653.00,-2.9976664,-9.186696,0.2799179
1421109350673.00,-2.7806177,-9.182055,0.20387603
1421109350696.00,-2.8859985,-9.466913,0.103734285
1421109350716.00,-2.9103978,-9.284143,0.121247865
1421109350736.00,-2.899171,-9.279952,0.23456222
1421109350754.00,-3.0412257,-9.330398,0.1445993
1421109350820.00,-3.018922,-9.427995,0.1567241
1421109350821.00,-2.9071047,-9.395811,0.088166654
1421109350822.00,-3.0825398,-9.402996,0.017064514
1421109350835.00,-3.0202694,-9.4474535,0.13037887
1421109350854.00,-3.045866,-9.374406,0.27288255
1421109350874.00,-2.9442275,-9.27636,0.29817992
1421109350894.00,-3.0210178,-9.26169,0.34173936
1421109350914.00,-2.9913795,-9.315578,0.4076024
1421109350933.00,-3.0201197,-9.402846,0.41074586
1421109350954.00,-3.0373337,-9.267677,0.30386811
1421109350974.00,-3.008294,-9.153765,0.40266266
1421109350993.00,-3.1205606,-9.387428,0.44622207
1421109351015.00,-3.2064822,-9.304801,0.57001466
1421109351033.00,-3.1398706,-9.229358,0.42272094
1421109351055.00,-3.1250515,-9.306447,0.2639012
1421109351077.00,-2.9666808,-9.322464,0.15432908
1421109351184.00,-2.9422815,-9.465267,0.3252736
1421109351185.00,-3.1519954,-9.514664,0.3215314
1421109351186.00,-3.286865,-9.328301,0.42496628
1421109351187.00,-3.118016,-9.254355,0.5315446
1421109351188.00,-3.0172756,-9.304651,0.48289582
1421109351193.00,-2.8964767,-9.315878,0.4593947
1421109351213.00,-3.1169682,-9.256152,0.5721103
1421109351233.00,-3.165617,-9.292526,0.6686595
1421109351255.00,-3.0805938,-9.379196,0.4975653
1421109351274.00,-3.1951058,-9.410031,0.36464173
1421109351294.00,-3.1751971,-9.254056,0.34518218
1421109351314.00,-3.0720615,-9.201365,0.41613466
1421109351333.00,-3.301235,-9.289832,0.5622308
1421109351354.00,-3.0692174,-9.350755,0.54337007
1421109351374.00,-3.0614338,-9.380543,0.5005591
1421109351393.00,-2.9482691,-9.238788,0.36958146
1421109351416.00,-2.833907,-9.245374,0.30296996
1421109351436.00,-2.8279192,-9.2874365,0.35491195
1421109351500.00,-2.7731333,-9.332643,0.24983047
1421109351501.00,-2.5589287,-9.174272,0.20776795
1421109351502.00,-2.4739056,-9.245075,-0.066461794
1421109351513.00,-2.3182292,-9.305848,-0.024848327
1421109351534.00,-2.3833437,-9.451495,0.006286926
1421109351554.00,-2.2104533,-9.714349,-0.21240829
1421109351576.00,-2.2570066,-9.634116,-0.4540059
1421109351598.00,-2.286046,-9.455537,-0.6093828
1421109351614.00,-2.3993604,-9.55029,-0.50609756
1421109351633.00,-2.534829,-9.381142,-0.38529876
1421109351654.00,-2.4037015,-9.323213,-0.15507752
1421109351674.00,-2.3867867,-9.235345,0.05613327
1421109351694.00,-2.2282662,-9.282198,0.05733078
1421109351713.00,-2.2224283,-9.398207,-0.01886078
1421109351734.00,-2.512525,-9.313033,-0.21674927
1421109351783.00,-2.5602758,-9.48308,-0.1845662
1421109351784.00,-2.6830206,-9.413475,-0.24863297
1421109351794.00,-2.7481353,-9.413923,-0.2856061
1421109351813.00,-2.6141639,-9.441167,-0.25956023
1421109351833.00,-2.480791,-9.512868,-0.17483643
1421109351854.00,-2.2728736,-9.453442,-0.18262024
1421109351874.00,-2.27467,-9.450149,0.061821442
1421109351896.00,-2.1823118,-9.544153,0.07948471
1421109351919.00,-2.277514,-9.5440035,0.18127304
1421109351934.00,-2.288591,-9.510773,0.445773
1421109351953.00,-2.4170237,-9.341774,0.5387297
1421109351973.00,-2.5569828,-9.383836,0.52480865
1421109351993.00,-2.713108,-9.386531,0.63887143
1421109352013.00,-2.700235,-9.546248,0.5828879
1421109352033.00,-2.791994,-9.471404,0.5210664
1421109352054.00,-2.7984307,-9.587113,0.50130755
1421109352121.00,-2.896926,-9.590556,0.6637198
1421109352122.00,-2.8135493,-9.273216,0.7047345
1421109352123.00,-2.891537,-9.154663,0.9656419
1421109352248.00,-2.7473867,-9.338779,1.1838881
1421109352249.00,-2.5738976,-9.376053,1.2548405
1421109352251.00,-2.497706,-9.352701,1.065634
1421109352252.00,-2.2305117,-9.509275,1.1114388
1421109352253.00,-2.4783962,-9.499396,1.2804374
1421109352254.00,-2.5424628,-9.570947,1.2475058
1421109352255.00,-2.407743,-9.299711,1.3847704
1421109352274.00,-2.288591,-9.271271,1.357527
1421109352304.00,-2.2152433,-9.224118,1.4596148
1421109352314.00,-2.0746856,-9.341025,1.4736855
1421109352341.00,-1.8890717,-9.497001,1.3338761
1421109352354.00,-3.1509476,-9.505683,1.1280541
1421109352374.00,-3.4519715,-9.221125,1.0015672
1421109352452.00,-3.2608192,-9.581426,-0.31734008
1421109352453.00,-2.4132814,-9.853709,-0.24983047
1421109352454.00,-1.6528629,-9.784103,-0.07768845
1421109352455.00,-1.6971707,-9.551338,0.54606444
1421109352474.00,-2.1799169,-9.577234,2.0743864
1421109352494.00,-2.4737558,-9.519005,2.0857627
1421109352514.00,-2.0675006,-9.299861,1.4983841
1421109352534.00,-1.7051042,-9.260044,1.0904824
1421109352554.00,-1.698967,-9.038654,0.7529343
1421109352574.00,-2.146237,-9.230405,1.0138417
1421109352595.00,-2.3879843,-9.520502,1.3980926
1421109352614.00,-2.3921754,-9.697434,1.1684701
1421109352636.00,-2.5021966,-9.606573,0.84169966
1421109352655.00,-2.5048912,-9.519604,0.9852512
1421109352674.00,-2.5087829,-9.402697,1.163231
1421109352694.00,-2.4822881,-9.374556,1.1073972
1421109352750.00,-2.274071,-9.321116,1.2745994
1421109352752.00,-1.9679576,-9.432186,1.215173
1421109352753.00,-1.8242564,-9.413475,1.3534855
1421109352777.00,-1.9510428,-9.426797,1.3820759
1421109352794.00,-1.9131715,-9.310938,1.4102174
1421109352814.00,-1.9221529,-9.386531,1.3802797
1421109352835.00,-2.0040326,-9.243428,1.5871495
1421109352854.00,-2.2361999,-9.328002,1.6073575
1421109352874.00,-2.3406825,-9.314381,1.3497432
1421109352894.00,-2.3815475,-9.368717,1.2156221
1421109352914.00,-2.3785539,-9.358688,1.3605208
1421109352934.00,-2.2876928,-9.525292,1.1729608
1421109352954.00,-2.1457877,-9.647288,1.2124786
1421109352979.00,-2.1534219,-9.6091175,1.0401869
1421109352997.00,-1.9734961,-9.6898,1.2368779
1421109353017.00,-1.9818786,-9.78126,1.1298505
1421109353037.00,-2.112557,-9.513167,1.2049942
1421109353058.00,-1.9166144,-9.566008,1.2002041
1421109353118.00,-1.7991087,-9.354048,1.3391153
1421109353119.00,-1.7937199,-9.379795,1.5985259
1421109353119.00,-1.9341279,-9.370963,1.4910493
1421109353139.00,-1.8729053,-9.332643,1.4754817
1421109353155.00,-1.9844234,-9.352701,1.5202386
1421109353174.00,-2.14474,-9.365274,1.6859441
1421109353196.00,-2.1285737,-9.377849,1.5582596
1421109353219.00,-2.189946,-9.518556,1.5332615
1421109353234.00,-2.0679498,-9.2907295,1.475332
1421109353254.00,-2.1035757,-9.415121,1.4682966
1421109353274.00,-2.030677,-9.515263,1.2928615
1421109353296.00,-2.0706441,-9.565558,1.3623171
1421109353319.00,-2.2357507,-9.710307,1.5001804
1421109353335.00,-2.5414152,-9.514664,1.4148577
1421109353355.00,-2.497706,-9.377399,1.5488292
1421109353427.00,-2.3017635,-9.394614,1.4281801
1421109353428.00,-2.1459374,-9.520951,1.698967
1421109353428.00,-2.1377046,-9.56466,1.7389339
1421109353439.00,-2.2079086,-9.48817,1.7043557
1421109353458.00,-2.2393432,-9.461974,1.8127304
1421109353475.00,-2.1820126,-9.338631,1.7808467
1421109353494.00,-2.2766159,-9.342671,1.8781444
1421109353515.00,-2.1959336,-9.351503,1.7910255
1421109353538.00,-2.2008734,-9.451795,1.6938776
1421109353554.00,-2.069147,-9.369316,1.7437239
1421109353577.00,-1.9338286,-9.355096,1.8758991
1421109353595.00,-1.9053878,-9.340576,1.936523
1421109353614.00,-1.9300864,-9.398954,1.6952248
1421109353634.00,-2.089954,-9.373208,1.6711249
1421109353655.00,-2.237547,-9.379795,1.7098943
1421109353674.00,-2.3480172,-9.233997,1.7429755
1421109354053.00,-1.9685564,-9.142388,1.7188755
1421109354055.00,-1.5983762,-9.344318,1.7688717
1421109354061.00,-1.3921051,-9.382938,1.8037491
1421109354062.00,-1.4242882,-9.609267,1.8450632
1421109354067.00,-1.8233583,-9.789792,1.7829423
1421109354067.00,-1.9999909,-9.493708,1.5756235
1421109354070.00,-2.0604653,-9.61256,1.3846207
1421109354076.00,-2.1598585,-9.477691,1.3202546
1421109354081.00,-2.1501288,-9.456884,1.5699353
1421109354082.00,-2.1576133,-9.474997,1.705254
1421109354083.00,-1.9049387,-9.383836,1.6184344
1421109354088.00,-1.91871,-9.27636,1.5765216
1421109354095.00,-1.8958076,-9.229957,1.4693445
1421109354098.00,-2.1396506,-9.5109215,1.420995
1421109354099.00,-2.085014,-9.468261,1.4197975
1421109354100.00,-2.027384,-9.384135,1.7670753
1421109354221.00,-2.16884,-9.443263,1.8729053
1421109354222.00,-2.0541782,-9.277258,1.6910335
1421109354223.00,-1.9842737,-9.3289,1.7684226
1421109354225.00,-2.0678,-9.254206,1.8501526
1421109354225.00,-2.1424947,-9.456435,1.7423767
1421109354226.00,-1.9722986,-9.389375,1.7540524
1421109354234.00,-2.1287234,-9.29522,1.7419276
1421109354255.00,-2.2330563,-9.457334,1.6709752
1421109354275.00,-2.1218376,-9.495654,1.6441809
1421109354296.00,-2.0974383,-9.474098,1.7262104
1421109354314.00,-2.218686,-9.353748,1.6482224
1421109354439.00,-2.0600162,-9.303603,1.7224681
1421109354442.00,-1.9860699,-9.436077,1.9100281
1421109354443.00,-2.1314178,-9.209748,1.773063
1421109354444.00,-2.331851,-9.382639,1.7082477
1421109354445.00,-2.2818549,-9.423204,1.7515078
1421109354445.00,-2.1877007,-9.473201,1.825454
1421109354454.00,-2.1936882,-9.408984,1.7878821
1421109354474.00,-2.0935464,-9.452244,1.6359481
1421109354496.00,-2.1489313,-9.270672,1.6432828
1421109354515.00,-2.206262,-9.384135,1.590742
1421109354535.00,-2.4499552,-9.360186,1.6973205
1421109354554.00,-2.502047,-9.353001,1.6498691
1421109354575.00,-2.364932,-9.465567,1.7155824
1421109354598.00,-2.449656,-9.423354,1.6453785
1421109354615.00,-2.2493725,-9.301806,1.6435821
1421109354634.00,-2.0935464,-9.354796,1.7244141
1421109354656.00,-2.2098546,-9.516161,1.6914825
1421109354960.00,-2.242337,-9.393866,1.7458196
1421109354962.00,-2.0761826,-9.470655,1.7741107
1421109354963.00,-2.0877085,-9.4297905,1.7877324
1421109354965.00,-2.287543,-9.30016,1.8178198
1421109354966.00,-2.2968237,-9.319321,1.904789
1421109354967.00,-2.3171813,-9.255853,1.8883232
1421109354969.00,-2.3079007,-9.325308,1.6639398
1421109354970.00,-2.1239333,-9.3067465,1.7238153
1421109354974.00,-2.194287,-9.33429,1.7622854
1421109354975.00,-2.1835093,-9.347312,1.8666184
1421109354976.00,-2.0814216,-9.409284,1.6952248
1421109354977.00,-2.251468,-9.611961,1.7329463
1421109354978.00,-2.2288651,-9.6107645,1.7416283
1421109354980.00,-2.2140458,-9.681867,1.393153
1421109354995.00,-2.2318587,-9.621542,1.3933026
1421109355016.00,-2.151925,-9.602232,1.5858023
1421109355075.00,-2.1309686,-9.532477,1.5718813
1421109355076.00,-2.274969,-9.398356,1.3404624
1421109355077.00,-2.4040008,-9.352701,1.475332
1421109355098.00,-2.3110442,-9.49251,1.685495
1421109355114.00,-1.9197578,-9.262139,1.7251625
1421109355134.00,-1.9966979,-9.30959,1.5952327
1421109355154.00,-2.169738,-9.132659,1.527274
1421109355175.00,-2.121688,-9.112151,1.694626
1421109355195.00,-1.8968555,-9.277857,1.6610957
1421109355215.00,-2.0612137,-9.460028,1.5236815
1421109355235.00,-2.1029768,-9.4474535,1.557062
1421109355255.00,-2.0354671,-9.48308,1.3224999
1421109355275.00,-2.011517,-9.419612,1.5257771
1421109355303.00,-2.073039,-9.389824,1.5733781
1421109355315.00,-2.3653812,-9.443413,1.5187417
1421109355423.00,-2.2131476,-9.380094,1.441203
1421109355425.00,-2.2453308,-9.362431,1.3281881
1421109355425.00,-2.2691314,-9.461974,1.2609777
1421109355426.00,-2.214944,-9.620494,1.323398
1421109355427.00,-2.0652552,-9.50254,1.3473482
1421109355435.00,-2.0395088,-9.539513,1.3266912
1421109355455.00,-2.131268,-9.458382,1.2737013
1421109355478.00,-1.9202069,-9.404793,1.2858261
1421109355495.00,-1.8477576,-9.443562,1.3127701
1421109355514.00,-1.936523,-9.535022,1.5274237
1421109355536.00,-1.8594333,-9.624835,1.549877
1421109355554.00,-2.1465364,-9.481133,1.4597644
1421109355575.00,-2.0441492,-9.530082,1.457519
1421109355595.00,-1.9360739,-9.570648,1.4805712
1421109355614.00,-1.8838326,-9.501192,1.3795313
1421109355634.00,-1.7455201,-9.504335,1.4486874
1421109355656.00,-1.7036073,-9.625134,1.6913328
1421109355728.00,-1.6684304,-9.472302,1.6501684
1421109355730.00,-1.5655943,-9.499546,1.4624588
1421109355731.00,-1.6555573,-9.497749,1.413361
1421109355735.00,-1.8046472,-9.503437,1.5238311
1421109355754.00,-1.6423846,-9.43503,1.8145267
1421109355774.00,-1.6323555,-9.484128,1.6205301
1421109355797.00,-1.6420853,-9.221724,1.5923886
1421109355821.00,-1.5980768,-9.3381815,1.37534
1421109355834.00,-1.5127542,-9.468261,1.1912228
1421109355855.00,-1.3558804,-9.551937,1.239273
1421109355876.00,-1.5573615,-9.460028,1.2422667
1421109355899.00,-1.5018269,-9.533226,1.0955718
1421109355919.00,-1.5847545,-9.456136,1.213227
1421109355935.00,-1.3656102,-9.436676,1.1708652
1421109355958.00,-1.317111,-9.505533,1.1837384
1421109356050.00,-1.4055771,-9.567953,1.1332933
1421109356055.00,-1.4720389,-9.619745,0.9116043
1421109356057.00,-1.5221846,-9.640253,0.9463321
1421109356059.00,-1.7127384,-9.581875,0.99438214
1421109356060.00,-1.7739611,-9.623188,0.80337936
1421109356074.00,-1.6531622,-9.335337,0.8491841
1421109356095.00,-1.6000228,-9.324859,0.8771759
1421109356115.00,-1.703308,-9.503288,1.1487112
1421109356135.00,-1.7155824,-9.369166,1.1835887
1421109356154.00,-1.7166302,-9.643396,0.981509
1421109356175.00,-1.6575032,-9.676927,0.6893166
1421109356196.00,-1.8037491,-9.604477,0.9285191
1421109356216.00,-2.0460951,-9.495953,1.119522
1421109356236.00,-1.9368224,-9.393866,1.0413845
1421109356258.00,-1.8661693,-9.501042,0.9607022
1421109356275.00,-1.8640736,-9.389524,0.8798703
1421109356298.00,-1.8959574,-9.392518,1.0318043
1421109356371.00,-1.8477576,-9.527687,0.9630972
1421109356372.00,-1.868714,-9.633068,0.8551717
1421109356374.00,-1.9209553,-9.585617,0.66536635
1421109356375.00,-1.9202069,-9.577683,0.48783553
1421109356395.00,-2.1483326,-9.554032,0.5863307
1421109356415.00,-2.1703367,-9.633817,0.45625123
1421109356435.00,-2.2706282,-9.877211,0.5628296
1421109356458.00,-2.2848487,-9.692794,0.5093907
1421109356485.00,-2.1532722,-9.642648,0.5834866
1421109356495.00,-2.147584,-9.631122,0.62315416
1421109356520.00,-2.1624033,-9.5175085,0.6996451
1421109356535.00,-2.2897882,-9.422306,0.8171507
1421109356555.00,-2.1671934,-9.433982,0.6572832
1421109356575.00,-2.1848567,-9.5616665,0.61372375
1421109356595.00,-2.249073,-9.484726,0.7012917
1421109356656.00,-2.2637424,-9.48308,0.6638695
1421109356657.00,-2.2198837,-9.418115,0.8044272
1421109356658.00,-2.1080663,-9.462722,0.8370593
1421109356678.00,-2.167792,-9.539662,0.98929274
1421109356699.00,-2.1454885,-9.548943,0.8370593
1421109356715.00,-2.1224363,-9.453591,0.8105644
1421109356735.00,-2.1676424,-9.354946,0.70368665
1421109356758.00,-2.1290226,-9.450897,0.78227323
1421109356776.00,-2.282753,-9.612411,0.6647676
1421109356795.00,-2.2080584,-9.507479,0.5752537
1421109356815.00,-2.0921993,-9.492809,0.7140152
1421109356840.00,-2.0622616,-9.563462,0.83571213
1421109356855.00,-1.9856209,-9.581725,0.7674541
1421109356875.00,-1.9284397,-9.605675,0.7569759
1421109356895.00,-2.11585,-9.501641,0.599653
1421109356916.00,-2.0640578,-9.493258,0.60040146
1421109356935.00,-1.9911593,-9.65612,0.7310797
1421109357006.00,-2.0073256,-9.638307,0.6601273
1421109357007.00,-2.0781286,-9.64624,0.7381151
1421109357008.00,-1.8260527,-9.765692,0.57405627
1421109357015.00,-1.8853295,-9.765991,0.6036946
1421109357035.00,-1.8594333,-9.767189,0.67509615
1421109357055.00,-1.9119741,-9.618998,0.6322852
1421109357075.00,-1.8279986,-9.528286,0.8202942
1421109357095.00,-1.9040406,-9.634714,0.96040285
1421109357115.00,-1.9020946,-9.432186,0.9648935
1421109357135.00,-1.7940193,-9.450448,0.93765014
1421109357165.00,-2.0508852,-9.402846,1.1823912
1421109357179.00,-2.0766315,-9.270971,1.1852353
1421109357195.00,-2.1453388,-9.286987,1.1985576
1421109357215.00,-1.8988014,-9.358239,1.2225078
1421109357235.00,-1.9820284,-9.471105,1.267564
1421109357255.00,-1.9853215,-9.416918,1.1975098
1421109357326.00,-1.9755918,-9.358838,1.1561956
1421109357326.00,-2.0815713,-9.492959,1.090632
1421109357327.00,-2.0472927,-9.430689,1.0529104
1421109357335.00,-1.9926562,-9.515263,1.0829979
1421109357355.00,-1.9827768,-9.45898,1.1838881
1421109357375.00,-1.9014958,-9.45898,1.1331437
1421109357395.00,-2.0131636,-9.463171,1.1003618
1421109357415.00,-1.9965482,-9.345516,1.0750644
1421109357438.00,-2.0935464,-9.546997,1.0482701
1421109357463.00,-2.065854,-9.469159,0.95980406
1421109357475.00,-2.0926483,-9.5246935,1.127156
1421109357496.00,-2.0818708,-9.626632,1.0382409
1421109357516.00,-2.1044738,-9.523795,0.8437953
1421109357538.00,-2.0820205,-9.527687,0.78631485
1421109357557.00,-1.9577788,-9.5351715,0.86385363
1421109357577.00,-1.8880239,-9.636211,0.9145981
1421109357597.00,-1.8459613,-9.588311,1.0078541
1421109357688.00,-2.189946,-9.615405,0.8316705
1421109357689.00,-1.9079324,-9.615405,0.68587375
1421109357690.00,-1.956731,-9.484278,0.86864364
1421109357691.00,-2.0228934,-9.494456,0.9840537
1421109357695.00,-2.120191,-9.557475,0.9009764
1421109357716.00,-1.9220031,-9.519304,0.9129515
1421109357736.00,-1.979334,-9.670041,0.94528425
1421109357758.00,-1.9029927,-9.535471,0.9065149
1421109357781.00,-2.012565,-9.458082,0.8681946
1421109357796.00,-1.9169137,-9.55014,0.90561676
1421109357816.00,-2.0122654,-9.538015,0.9595047
1421109357836.00,-1.8874251,-9.460627,0.8626561
1421109357856.00,-1.9983444,-9.584419,0.94393706
1421109357881.00,-1.9339783,-9.623937,0.8903485
1421109357899.00,-1.9240988,-9.484876,0.77299255
1421109357915.00,-1.9981947,-9.494756,0.90441924
1421109357971.00,-1.9597248,-9.434431,0.9156459
1421109357972.00,-1.9775376,-9.538614,0.9485774
1421109357982.00,-2.117796,-9.532178,1.0261161
1421109357996.00,-1.9022442,-9.540112,1.0386901
1421109358015.00,-1.9353255,-9.412726,1.0039623
1421109358036.00,-2.0778291,-9.286688,0.99078965
1421109358056.00,-1.9080821,-9.563462,0.9900412
1421109358076.00,-1.832639,-9.61765,1.0943742
1421109358097.00,-1.9202069,-9.544303,0.9903406
1421109358119.00,-2.019301,-9.499845,0.99752563
1421109358135.00,-1.9616706,-9.518406,0.8798703
1421109358155.00,-2.003883,-9.540561,0.9313632
1421109358176.00,-2.0679498,-9.291927,0.855471
1421109358196.00,-2.0448976,-9.633068,0.8560698
1421109358215.00,-1.9601738,-9.46347,0.99872315
1421109358235.00,-1.9137703,-9.426048,1.0114467
1421109358308.00,-1.9107765,-9.421408,0.94019485
1421109358309.00,-1.9787352,-9.51197,0.91205335
1421109358310.00,-1.9881656,-9.505982,0.83825684
1421109358320.00,-1.877396,-9.592053,0.96938413
1421109358335.00,-2.0422032,-9.469608,0.9559122
1421109358355.00,-1.9922072,-9.536669,0.9488768
1421109358377.00,-2.0803738,-9.396859,0.9824071
1421109358396.00,-2.0910017,-9.494456,0.9635463
1421109358418.00,-1.9688557,-9.635463,0.8586145
1421109358440.00,-1.9598744,-9.523496,0.88031936
1421109358455.00,-2.1061203,-9.608668,0.9602531
1421109358475.00,-2.0378623,-9.566157,0.9048683
1421109358495.00,-1.9422112,-9.517209,0.9042696
1421109358515.00,-1.8300943,-9.466614,0.8012837
1421109358539.00,-2.07259,-9.579479,0.90531737
1421109358557.00,-2.0787272,-9.546398,0.82777864
1421109358579.00,-1.9946022,-9.330098,0.91504717
1421109358598.00,-1.9279907,-9.473649,0.92582476
1421109358663.00,-1.9484981,-9.450149,0.9054671
1421109358664.00,-2.0537293,-9.595945,0.843945
1421109358665.00,-1.9401155,-9.5070305,0.86220706
1421109358677.00,-1.945654,-9.477691,0.88690567
1421109358695.00,-1.9761904,-9.536369,1.0696756
1421109358716.00,-2.009571,-9.440718,0.9732761
1421109358735.00,-1.9863694,-9.517958,1.0249187
1421109358756.00,-2.0046313,-9.469608,0.9794133
1421109358776.00,-1.8862276,-9.608519,0.92747134
1421109358796.00,-2.065854,-9.515412,1.0343491
1421109358816.00,-2.064956,-9.55538,0.95860654
1421109358835.00,-2.0124152,-9.605525,0.7854167
1421109358859.00,-1.9995419,-9.527388,0.69889665
1421109358880.00,-2.0420535,-9.571096,0.72778654
1421109358972.00,-2.0004401,-9.614507,0.73497164
1421109358973.00,-1.8739531,-9.645941,0.67210233
1421109358974.00,-2.0146606,-9.6742325,0.7702982
1421109358975.00,-2.0863614,-9.655821,0.938698
1421109358976.00,-2.1237836,-9.494905,0.94109297
1421109359000.00,-2.0239413,-9.55014,0.9169931
1421109359016.00,-2.0883074,-9.4877205,0.9190887
1421109359036.00,-2.1350102,-9.5070305,1.0174342
1421109359056.00,-2.1683908,-9.573941,1.0120454
1421109359076.00,-2.2960753,-9.548943,0.88690567
1421109359098.00,-2.1924906,-9.514365,0.8051756
1421109359115.00,-2.1685405,-9.486972,0.87208647
1421109359135.00,-2.253414,-9.56496,0.89394104
1421109359155.00,-2.3363416,-9.553284,0.73093003
1421109359176.00,-2.2402413,-9.416918,0.7738907
1421109359196.00,-2.3026617,-9.415121,0.7084767
1421109359218.00,-2.4327412,-9.451345,0.7084767
1421109359290.00,-2.311643,-9.39626,0.97776675
1421109359291.00,-2.2772145,-9.385483,0.86894304
1421109359292.00,-2.2580543,-9.530082,0.73093003
1421109359296.00,-2.1088147,-9.53128,0.70802766
1421109359317.00,-1.9893631,-9.572594,0.7940987
1421109359336.00,-1.8425184,-9.652827,0.809816
1421109359355.00,-1.5655943,-9.604477,0.77269316
1421109359376.00,-1.64463,-9.515562,1.1222163
1421109359400.00,-1.8709593,-9.366472,1.3807287
1421109359419.00,-1.9978954,-9.298813,1.1642789
1421109359441.00,-2.1257296,-9.314381,0.950224
1421109359456.00,-2.1487815,-9.577384,0.6969507
1421109359476.00,-2.220632,-9.567504,0.7047345
1421109359496.00,-2.110611,-9.693842,0.45894563
1421109359515.00,-2.206262,-9.5969925,0.4046086
1421109359538.00,-2.1683908,-9.651031,0.58588165
1421109359556.00,-2.137555,-9.645791,0.49666718
1421109359630.00,-2.105372,-9.767039,0.48229706
1421109359631.00,-2.084116,-9.687105,0.52001864
1421109359632.00,-2.1987777,-9.542057,0.7197034
1421109359640.00,-2.1483326,-9.339378,0.7934999
1421109359658.00,-2.1989274,-9.483978,0.77523786
1421109359676.00,-2.088008,-9.507479,0.9267229
1421109359696.00,-2.2433848,-9.421108,1.083447
1421109359717.00,-2.1270766,-9.588611,1.1820918
1421109359739.00,-2.0926483,-9.466165,0.954565
1421109359755.00,-2.1059706,-9.4049425,1.0485694
1421109359775.00,-1.9064355,-9.386231,1.1889775
1421109359795.00,-1.9104772,-9.368867,1.3997393
1421109359820.00,-2.0574715,-9.381291,1.321003
1421109359836.00,-1.9324814,-9.384135,1.2937596
1421109359855.00,-1.9049387,-9.312285,1.2045451
1421109359875.00,-2.0329225,-9.336385,1.0855426
1421109359898.00,-2.0314257,-9.346115,1.1690689
1421109359959.00,-1.909579,-9.283395,1.2798386
1421109359960.00,-1.8669177,-9.396859,1.0532098
1421109359961.00,-1.8615289,-9.498348,0.95321774
1421109359982.00,-1.8844314,-9.441616,0.8677455
1421109359996.00,-2.1022284,-9.677675,0.7231462
1421109360016.00,-2.0547771,-9.654324,0.5334906
1421109360037.00,-2.1650977,-9.827514,0.5110373
1421109360057.00,-2.185605,-9.654773,0.74485105
1421109360076.00,-2.0116668,-9.74758,0.7658075
1421109360097.00,-1.843267,-9.59325,0.7189549
1421109360117.00,-1.8217118,-9.602232,0.8132588
1421109360136.00,-1.8329384,-9.580527,0.8120613
1421109360161.00,-1.877396,-9.618399,1.0087523
1421109360176.00,-1.8805394,-9.5600195,0.9279204
1421109360196.00,-1.6968713,-9.50224,0.97597045
1421109360217.00,-1.7812958,-9.533824,0.8310718
1421109360279.00,-1.7998571,-9.507628,0.9116043
1421109360281.00,-1.9224522,-9.57903,0.9196875
1421109360282.00,-1.9836749,-9.644444,1.023272
1421109360297.00,-1.8703606,-9.682316,0.9313632
1421109360316.00,-1.8633252,-9.610615,0.9698332
1421109360336.00,-1.8946102,-9.627829,0.9764195
1421109360357.00,-2.0239413,-9.52634,0.87627774
1421109360377.00,-2.0478914,-9.624536,0.9273216
1421109360396.00,-1.9151175,-9.447155,0.95216995
1421109360416.00,-1.8938617,-9.608818,0.91010743
1421109360437.00,-1.974993,-9.53083,1.0466236
1421109360456.00,-2.13037,-9.47799,1.0909314
1421109360480.00,-1.9981947,-9.546548,0.9147478
1421109360498.00,-1.9666104,-9.402397,1.0078541
1421109360518.00,-1.8946102,-9.413325,1.0265652
1421109360538.00,-1.8875748,-9.461974,1.151256
1421109360622.00,-1.943259,-9.607022,1.2331357
1421109360623.00,-1.95718,-9.349558,0.9595047
1421109360624.00,-1.9535875,-9.499994,0.9045689
1421109360624.00,-1.898951,-9.402996,0.9169931
1421109360636.00,-1.8422191,-9.491612,0.8779243
1421109360656.00,-2.0492387,-9.663605,0.8904982
1421109360676.00,-2.016756,-9.5600195,0.91759187
1421109360703.00,-2.0431013,-9.562116,1.0124946
1421109360716.00,-1.95718,-9.491612,1.2085867
1421109360736.00,-1.7381854,-9.302256,0.9906399
1421109360756.00,-1.5786172,-9.317973,1.0755135
1421109360777.00,-1.9362236,-9.561966,0.8952882
1421109360796.00,-2.054328,-9.508677,0.9592053
1421109360817.00,-2.2507195,-9.321566,0.69994444
1421109360836.00,-2.0794756,-9.519005,0.64036834
1421109360856.00,-1.9787352,-9.364227,0.9139993
1421109360940.00,-1.750909,-9.689351,0.9241782
1421109360940.00,-1.7697698,-9.701177,0.8125104
1421109360941.00,-1.6706758,-9.485325,0.32557297
1421109360942.00,-1.3554313,-9.745784,0.38799316
1421109360961.00,-1.9233503,-9.825268,0.5351372
1421109360976.00,-2.3752606,-9.600137,1.1231145
1421109360996.00,-2.4748037,-9.481433,0.8330177
1421109361016.00,-2.169738,-9.577234,0.8764275
1421109361036.00,-1.9984941,-9.617051,0.74604857
1421109361056.00,-1.7769548,-9.638756,1.1835887
1421109361076.00,-1.762435,-9.639355,0.91639435
1421109361098.00,-1.6573535,-9.445508,0.9659413
1421109361121.00,-2.1242325,-9.596544,0.9514215
1421109361138.00,-2.38993,-9.499994,1.2684622
1421109361156.00,-2.3291564,-9.504934,1.0205777
1421109361176.00,-2.1709356,-9.566307,0.90561676
1421109361248.00,-1.926943,-9.455836,0.4840933
1421109361249.00,-2.3379881,-9.578731,1.07237
1421109361250.00,-2.056723,-9.385183,1.1776012
1421109361256.00,-1.8178198,-9.614956,0.925226
1421109361277.00,-1.9544857,-9.238937,0.72539157
1421109361297.00,-1.8517991,-9.406139,0.56911653
1421109361317.00,-1.121917,-9.353001,0.12858261
1421109361339.00,-2.1725821,-10.238858,0.91519684
1421109361356.00,-2.493365,-9.708811,1.2261003
1421109361376.00,-1.5236815,-9.733359,0.43484575
1421109361399.00,-1.6940273,-9.409733,0.6879694
1421109361416.00,-2.0755837,-9.66091,0.7589218
1421109361436.00,-2.2829027,-9.604029,0.76161623
1421109361456.00,-1.9868184,-9.5335245,0.56178176
1421109361476.00,-1.5423926,-9.7862,0.7855664
1421109361496.00,-2.0157082,-9.469608,0.95860654
1421109361553.00,-2.0176542,-9.485025,0.72613996
1421109361555.00,-1.8025516,-9.565558,0.7319778
1421109361556.00,-1.7812958,-9.461525,0.6264473
1421109361577.00,-2.0270846,-9.339528,0.6116281
1421109361596.00,-2.337539,-9.399553,0.6348299
1421109361616.00,-2.203867,-8.980275,0.7418573
1421109361637.00,-2.0104692,-8.983418,0.89903045
1421109361656.00,-2.3611898,-9.81973,1.2340338
1421109361679.00,-2.2424867,-10.314751,1.7967137
1421109361702.00,-1.8166223,-9.816287,1.5438895
1421109361716.00,-1.3976436,-10.11776,0.9696835
1421109361736.00,-1.1551479,-10.398576,0.7506889
1421109361756.00,-1.8766475,-9.895922,0.18276992
1421109361781.00,-1.0735675,-9.028924,-0.8457413
1421109361797.00,-1.129102,-8.825198,-0.2415976
1421109361816.00,-2.6897566,-8.959619,1.940864
1421109361879.00,-3.0590386,-9.518855,1.3407619
1421109361880.00,-2.1703367,-9.891131,-0.07065307
1421109361881.00,-1.6175363,-9.837992,0.32557297
1421109361896.00,-1.7372873,-9.610615,1.2888199
1421109361916.00,-1.7359401,-9.369166,1.7669257
1421109361936.00,-1.7151333,-9.350156,1.5852035
1421109361956.00,-1.8479073,-9.479487,0.97597045
1421109361977.00,-2.280807,-9.339977,0.9497749
1421109361999.00,-2.4629781,-9.0004835,0.8705896
1421109362016.00,-2.4364834,-9.170979,0.8412506
1421109362036.00,-2.021247,-9.326356,1.1576926
1421109362057.00,-1.6634908,-9.48278,1.1796968
1421109362078.00,-1.8181192,-9.581276,0.8412506
1421109362097.00,-1.8113832,-9.66061,0.66162413
1421109362117.00,-1.7809964,-9.691446,0.5828879
1421109362137.00,-2.0001407,-9.519903,0.6950047
1421109362157.00,-1.9332298,-9.5721445,0.7433542
1421109362219.00,-1.9490968,-9.680968,0.8523276
1421109362220.00,-2.099983,-9.627679,0.88346285
1421109362221.00,-2.0704944,-9.589957,0.7417076
1421109362240.00,-1.9471508,-9.618848,0.75338334
1421109362256.00,-1.9919078,-9.554631,0.9716295
1421109362277.00,-2.0706441,-9.517359,1.0512639
1421109362296.00,-2.1502786,-9.421408,1.108894
1421109362316.00,-1.9516416,-9.452543,1.2103829
1421109362336.00,-1.8821859,-9.437275,1.1250604
1421109362358.00,-2.284699,-9.2239685,1.0726694
1421109362379.00,-3.3970358,-9.235345,0.85277665
1421109362397.00,-3.1798375,-9.286688,0.29847932
1421109362418.00,-1.9962487,-9.436227,0.021255799
1421109362436.00,-0.61028093,-9.823173,0.48618898
1421109362456.00,-0.950224,-9.6775255,0.6306386
1421109362477.00,-1.8155745,-9.633966,1.2692107
1421109362564.00,-1.6461269,-9.985286,1.681154
1421109362565.00,-1.563349,-9.75237,1.541195
1421109362566.00,-1.6253201,-9.184002,0.9833052
1421109362567.00,-1.7342935,-9.245973,0.34682876
1421109362584.00,-2.018253,-9.449999,0.25462052
1421109362597.00,-2.248175,-9.6163025,0.9222322
1421109362617.00,-2.1477337,-9.729018,1.0455757
1421109362637.00,-2.2505698,-9.742191,0.816552
1421109362656.00,-2.264042,-9.556427,0.6984476
1421109362676.00,-2.0172052,-9.483379,0.8687933
1421109362697.00,-1.8678159,-9.557924,1.0006691
1421109362717.00,-1.8176701,-9.479487,1.0568024
1421109362736.00,-1.7375866,-9.434431,0.9012758
1421109362757.00,-1.540746,-9.549841,0.7623646
1421109362778.00,-1.8338366,-9.53577,0.90022796
1421109362799.00,-1.9652632,-9.429192,0.9111552
1421109362868.00,-2.1389022,-9.46377,0.90696394
1421109362869.00,-2.1713846,-9.535022,0.832419
1421109362870.00,-2.043251,-9.599837,0.90052736
1421109362877.00,-2.0790267,-9.651629,0.74036044
1421109362897.00,-2.1204903,-9.520951,0.8509804
1421109362917.00,-1.9338286,-9.528585,0.934357
1421109362937.00,-1.9658619,-9.661958,0.97567105
1421109362956.00,-1.9372715,-9.591005,0.91639435
1421109362985.00,-1.8744022,-9.536968,1.0100995
1421109362997.00,-1.9856209,-9.525442,0.8159532
1421109363017.00,-1.9694545,-9.612111,0.7933502
1421109363036.00,-1.9296373,-9.486822,0.8884026
1421109363056.00,-1.9532881,-9.559422,0.9045689
1421109363077.00,-1.9374211,-9.509126,0.93001604
1421109363101.00,-2.0425026,-9.569001,0.8168514
1421109363121.00,-2.0862117,-9.587862,0.8710387
1421109363142.00,-2.0056791,-9.537716,0.9216335
1421109363219.00,-2.0957918,-9.658814,0.91893905
1421109363220.00,-1.9371217,-9.484726,0.911754
1421109363221.00,-1.9282901,-9.359437,0.9827064
1421109363222.00,-1.8603314,-9.699679,0.8060738
1421109363241.00,-1.9616706,-9.524544,0.963696
1421109363257.00,-1.8628762,-9.469907,1.053659
1421109363277.00,-1.8574873,-9.448951,0.9939331
1421109363298.00,-1.916315,-9.47814,0.98764616
1421109363322.00,-2.0722907,-9.460477,0.87148774
1421109363340.00,-1.9648142,-9.56481,1.0975177
1421109363356.00,-1.9531385,-9.489367,0.9909393
1421109363377.00,-2.032174,-9.586365,0.8716374
1421109363397.00,-2.057172,-9.477093,0.8836125
1421109363417.00,-1.9402652,-9.464519,0.9190887
1421109363438.00,-1.8883232,-9.547895,0.895887
1421109363457.00,-1.8363812,-9.558523,0.9812096
1421109363527.00,-1.8920654,-9.53622,0.95695996
1421109363527.00,-1.9014958,-9.477691,0.89169574
1421109363528.00,-1.9160156,-9.413923,0.8551717
1421109363536.00,-2.009571,-9.568552,0.93630296
1421109363557.00,-2.0350182,-9.481133,1.0413845
1421109363578.00,-1.9833755,-9.574091,0.92552537
1421109363597.00,-1.9923569,-9.534123,0.89109695
1421109363617.00,-1.9866687,-9.461824,0.9891431
1421109363638.00,-2.0074754,-9.508677,0.82897615
1421109363657.00,-1.9734961,-9.431138,0.7747888
1421109363678.00,-1.9516416,-9.5898075,0.8140073
1421109363697.00,-1.9040406,-9.552685,0.9136999
1421109363717.00,-1.8438656,-9.621991,0.8464897
1421109363737.00,-1.9179616,-9.519604,0.77957886
1421109363757.00,-2.0157082,-9.436676,0.77838135
1421109363785.00,-1.9209553,-9.508826,0.84619033
1421109363846.00,-2.0222945,-9.547746,0.8789722
1421109363847.00,-2.0213964,-9.492062,0.8071216
1421109363848.00,-1.988914,-9.448202,0.7500902
1421109363858.00,-1.9685564,-9.4684105,0.75817335
1421109363879.00,-2.097139,-9.503288,0.8184979
1421109363897.00,-2.048041,-9.491313,0.8186476
1421109363918.00,-2.0800745,-9.461974,0.8029303
1421109363937.00,-2.0222945,-9.577085,0.91579556
1421109363957.00,-2.0685484,-9.471404,0.8957373
1421109363977.00,-2.0673509,-9.582323,0.9475296
1421109363997.00,-2.06301,-9.489965,0.74664736
1421109364018.00,-1.9303857,-9.480984,0.7415579
1421109364038.00,-1.9308348,-9.524095,0.8414003
1421109364058.00,-2.032623,-9.58397,0.88091815
1421109364077.00,-2.0996838,-9.535321,0.9303154
1421109364097.00,-1.938918,-9.491612,0.8241861
1421109364157.00,-1.9127225,-9.470356,0.83855623
1421109364158.00,-1.9657123,-9.532477,0.721799
1421109364159.00,-2.0392094,-9.587563,0.8839119
1421109364178.00,-2.0857627,-9.618399,0.7964937
1421109364197.00,-2.0124152,-9.539513,0.77179503
1421109364217.00,-2.0416045,-9.50254,0.7032376
1421109364237.00,-2.2282662,-9.417217,0.72808594
1421109364261.00,-2.2326074,-9.618998,0.66431856
1421109364281.00,-2.049538,-9.575887,0.68302965
1421109364302.00,-1.9601738,-9.595047,0.76790315
1421109364321.00,-2.0088227,-9.628128,0.626597
1421109364340.00,-1.972598,-9.69459,0.7348219
1421109364358.00,-2.0833676,-9.553583,0.77014846
1421109364379.00,-2.1511767,-9.456585,0.6268964
1421109364397.00,-2.2219794,-9.434731,0.7735913
1421109364417.00,-2.0977378,-9.499546,0.78122544
1421109364492.00,-2.047143,-9.536369,0.8655002
1421109364494.00,-2.0921993,-9.442215,0.74290514
1421109364496.00,-2.088906,-9.5053835,0.8026309
1421109364497.00,-2.0472927,-9.422905,0.79020673
1421109364517.00,-2.0752845,-9.484726,0.9102571
1421109364537.00,-2.0998335,-9.578431,0.77523786
1421109364557.00,-2.135609,-9.449699,0.86669767
1421109364577.00,-2.0565734,-9.5452,0.7544311
1421109364597.00,-1.8776953,-9.664352,0.5394781
1421109364617.00,-2.049987,-9.653126,0.66940796
1421109364637.00,-2.0143611,-9.556427,0.8454419
1421109364661.00,-1.8944604,-9.576785,0.6768924
1421109364677.00,-1.7714163,-9.663156,0.71626055
1421109364698.00,-1.8874251,-9.585018,0.6450087
1421109364718.00,-1.9577788,-9.613758,0.6779402
1421109364737.00,-2.0282822,-9.571246,0.5876779
1421109364759.00,-2.079775,-9.423204,0.7324269
1421109364826.00,-1.9443069,-9.527388,0.8053253
1421109364826.00,-1.9708017,-9.548943,0.81804883
1421109364828.00,-2.0074754,-9.48278,0.8909473
1421109364838.00,-1.9681073,-9.508377,0.8196954
1421109364857.00,-1.9619701,-9.507778,0.79799056
1421109364878.00,-2.1136048,-9.504335,0.8623567
1421109364897.00,-2.0200493,-9.546847,0.7342232
1421109364918.00,-2.013912,-9.510174,0.7183562
1421109364949.00,-2.100582,-9.618998,0.7158115
1421109364958.00,-2.0263362,-9.591305,0.69455564
1421109364978.00,-1.8594333,-9.518107,0.79454774
1421109364998.00,-2.0142114,-9.669891,0.86954176
1421109365017.00,-2.0011885,-9.611961,0.8375084
1421109365037.00,-1.9384689,-9.548493,0.90037763
1421109365057.00,-1.9929557,-9.474398,0.9889934
1421109365077.00,-2.0874093,-9.472901,0.83795744
1421109365097.00,-2.0598664,-9.450598,0.75278455
1421109365163.00,-2.2044659,-9.566307,0.65234345
1421109365164.00,-2.0865111,-9.525742,0.70623136
1421109365165.00,-2.0127146,-9.491612,0.773741
1421109365183.00,-2.0760329,-9.439221,0.710722
1421109365200.00,-1.9965482,-9.4965515,0.8158035
1421109365217.00,-2.0453467,-9.529334,0.8650511
1421109365238.00,-2.1246817,-9.478439,0.798739
1421109365260.00,-2.1395009,-9.621243,0.812211
1421109365277.00,-1.8904189,-9.45419,0.7538324
1421109365297.00,-1.9642154,-9.476045,0.7794292
1421109365317.00,-1.9814296,-9.493258,0.8068222
1421109365338.00,-2.1921914,-9.6002865,0.75847274
1421109365360.00,-2.0058289,-9.610016,0.65878004
1421109365379.00,-2.0441492,-9.645493,0.7123686
1421109365398.00,-1.9896625,-9.49266,0.6264473
1421109365475.00,-2.0130138,-9.527687,0.62824357
1421109365476.00,-1.9648142,-9.43503,0.7361691
1421109365477.00,-1.9154168,-9.442814,0.6715036
1421109365478.00,-1.9697539,-9.445807,0.75937086
1421109365497.00,-2.0131636,-9.5230465,0.70174074
1421109365517.00,-1.9943029,-9.514813,0.72045183
1421109365537.00,-1.852847,-9.552086,0.6542894
1421109365566.00,-1.9158659,-9.551638,0.7206015
1421109365577.00,-2.0044816,-9.628278,0.81730044
1421109365600.00,-1.9742446,-9.480685,0.8490344
1421109365618.00,-2.0417542,-9.533674,0.9448352
1421109365638.00,-1.995201,-9.438024,1.0041119
1421109365657.00,-2.0064275,-9.398805,0.91070616
1421109365680.00,-2.1119583,-9.508826,0.8840616
1421109365699.00,-2.1263282,-9.50224,0.8586145
1421109365718.00,-2.1761746,-9.417366,0.7316785
1421109365737.00,-2.1659958,-9.425599,0.8092172
1421109365758.00,-2.0680993,-9.521251,0.8696915
1421109365838.00,-2.0213964,-9.671389,0.75173676
1421109365839.00,-1.8720071,-9.628877,0.8674461
1421109365840.00,-1.9440074,-9.595646,0.8515791
1421109365841.00,-1.9839743,-9.543554,0.77014846
1421109365862.00,-2.0395088,-9.541758,0.6953041
1421109365877.00,-2.0489392,-9.645493,0.6803352
1421109365897.00,-1.9899619,-9.687255,0.4815486
1421109365917.00,-1.95718,-9.548493,0.5366341
1421109365938.00,-1.9794836,-9.560768,0.6578819
1421109365957.00,-1.9905607,-9.418863,0.7604187
1421109365977.00,-1.9775376,-9.588611,0.893492
1421109365997.00,-1.8732047,-9.460327,0.8668474
1421109366020.00,-1.9422112,-9.42994,0.9012758
1421109366039.00,-1.9570303,-9.440568,0.8029303
1421109366060.00,-1.9809805,-9.439521,0.79679304
1421109366130.00,-2.0344193,-9.485774,0.6839278
1421109366131.00,-1.9857706,-9.600436,0.77194476
1421109366132.00,-1.9898121,-9.587563,0.7598199
1421109366137.00,-1.966311,-9.740844,0.6854246
1421109366159.00,-2.0103195,-9.668095,0.7723938
1421109366178.00,-1.9829265,-9.571995,0.7316785
1421109366197.00,-1.9613713,-9.366772,0.72105056
1421109366218.00,-1.8823357,-9.4739485,0.6601273
1421109366238.00,-1.8805394,-9.525592,0.76131684
1421109366259.00,-1.8229092,-9.492809,0.7867639
1421109366277.00,-1.9348764,-9.548344,0.72134995
1421109366298.00,-2.1007316,-9.518556,0.875679
1421109366317.00,-2.0100203,-9.499396,0.7994875
1421109366337.00,-1.920656,-9.571546,0.5947133
1421109366357.00,-1.972598,-9.51661,0.6746471
1421109366377.00,-1.9622694,-9.427246,0.8750803
1421109366450.00,-2.0366647,-9.452543,0.9169931
1421109366451.00,-1.9719992,-9.595197,0.86475176
1421109366452.00,-2.0700452,-9.413176,0.91265213
1421109366461.00,-1.9422112,-9.573043,0.9171428
1421109366479.00,-1.8592836,-9.487421,0.8785231
1421109366498.00,-1.9205062,-9.445957,0.9596544
1421109366518.00,-1.9972966,-9.533226,0.8759784
1421109366538.00,-1.9318826,-9.491612,0.8222401
1421109366558.00,-1.943259,-9.581575,0.8798703
1421109366583.00,-1.9073337,-9.457334,0.8589139
1421109366610.00,-1.9359242,-9.452693,0.93345886
1421109366618.00,-1.8480569,-9.517059,0.79035646
1421109366637.00,-2.0303779,-9.4684105,0.8634045
1421109366657.00,-2.012565,-9.489367,0.7447014
1421109366678.00,-1.9124231,-9.489965,0.88346285
1421109366697.00,-2.020648,-9.58906,0.74515045
1421109366768.00,-1.9446062,-9.530381,0.74095917
1421109366769.00,-1.8047969,-9.528436,0.8402028
1421109366770.00,-1.9669098,-9.5230465,0.94423646
1421109366787.00,-1.8973045,-9.487421,0.89992857
1421109366797.00,-1.9320323,-9.533375,0.83062273
1421109366819.00,-1.9896625,-9.457483,0.72778654
1421109366838.00,-1.9481987,-9.479787,0.78227323
1421109366857.00,-2.0679498,-9.487571,0.8418494
1421109366878.00,-1.9362236,-9.486373,0.68123335
1421109366898.00,-2.0031345,-9.540859,0.91325086
1421109366917.00,-2.009122,-9.553883,0.88540876
1421109366939.00,-2.063459,-9.51197,0.8690927
1421109366958.00,-1.9740949,-9.569151,0.8313711
1421109366977.00,-1.9236498,-9.525143,0.8503816
1421109366999.00,-2.0775297,-9.457034,0.7958949
1421109367018.00,-2.01481,-9.4772415,0.79544586
1421109367082.00,-2.0437002,-9.578731,0.7927515
1421109367083.00,-1.9131715,-9.50224,0.782872
1421109367084.00,-1.9221529,-9.519304,0.87298465
1421109367210.00,-2.065405,-9.570648,0.87672687
1421109367210.00,-2.1049228,-9.541758,0.82298857
1421109367211.00,-1.9848725,-9.4491005,0.83945435
1421109367212.00,-1.9940034,-9.536968,0.89229447
1421109367213.00,-1.9950513,-9.479937,0.832419
1421109367215.00,-1.9654129,-9.489367,0.81161225
1421109367225.00,-1.9853215,-9.484876,0.8659493
1421109367262.00,-2.0748353,-9.595646,0.7990384
1421109367263.00,-1.9264939,-9.464069,0.7171587
1421109367291.00,-1.9872675,-9.387428,0.9315129
1421109367305.00,-1.9691551,-9.46347,0.88196594
1421109367318.00,-2.0636086,-9.517658,0.81640226
1421109367339.00,-1.9627185,-9.575288,0.8625064
1421109367358.00,-1.8946102,-9.628278,0.71700895
1421109367378.00,-1.9035915,-9.570049,0.80742097
1421109367453.00,-1.9197578,-9.543255,0.9443861
1421109367453.00,-1.968257,-9.486373,1.0279125
1421109367455.00,-1.9312838,-9.48787,0.8467891
1421109367458.00,-1.9073337,-9.571396,0.8687933
1421109367478.00,-1.9339783,-9.581426,0.8919951
1421109367499.00,-1.9151175,-9.549691,0.8243358
1421109367518.00,-2.0016375,-9.524843,0.8393047
1421109367538.00,-2.1068687,-9.509725,0.8186476
1421109367567.00,-1.9484981,-9.425,0.90022796
1421109367578.00,-2.114503,-9.532627,0.80727124
1421109367598.00,-2.0516336,-9.519903,0.7623646
1421109367618.00,-2.0227437,-9.575587,0.7887099
1421109367638.00,-1.9911593,-9.474847,0.7972421
1421109367658.00,-2.0375628,-9.494157,0.78227323
1421109367678.00,-1.9984941,-9.536369,0.7497908
1421109367698.00,-2.0728893,-9.571246,0.64845157
1421109367775.00,-2.0004401,-9.520802,0.76116717
1421109367776.00,-1.9694545,-9.491463,0.79709244
1421109367777.00,-1.8839822,-9.607921,0.8643027
1421109367778.00,-1.9980451,-9.623338,0.8279283
1421109367798.00,-1.9854712,-9.639804,0.80742097
1421109367820.00,-2.042353,-9.593699,0.6987469
1421109367839.00,-1.9221529,-9.586664,0.92552537
1421109367860.00,-1.9886147,-9.5217,0.80772036
1421109367881.00,-1.9809805,-9.610166,0.80397815
1421109367898.00,-1.9490968,-9.581426,0.71790713
1421109367918.00,-1.8390756,-9.417217,0.8053253
1421109367938.00,-1.8729053,-9.5053835,0.966091
1421109367958.00,-1.8411713,-9.614357,0.79439807
1421109367978.00,-1.9429595,-9.493258,0.8861572
1421109368000.00,-2.0407064,-9.535022,0.959355
1421109368020.00,-1.9550843,-9.592203,0.7940987
1421109368086.00,-2.0411553,-9.515562,0.7030879
1421109368087.00,-1.95239,-9.519604,0.857417
1421109368088.00,-1.9233503,-9.497899,0.83406556
1421109368098.00,-1.9005977,-9.508377,0.8735834
1421109368118.00,-1.9179616,-9.566756,0.6794371
1421109368138.00,-2.0661535,-9.496851,0.7994875
1421109368158.00,-2.0170555,-9.557625,0.8199948
1421109368178.00,-1.9203566,-9.624236,0.8454419
1421109368199.00,-1.9481987,-9.591754,0.93615323
1421109368218.00,-1.9643651,-9.5696,0.7810757
1421109368239.00,-2.0314257,-9.582772,0.8152048
1421109368258.00,-1.9381696,-9.569151,0.70832705
1421109368278.00,-2.0462449,-9.574539,0.7092252
1421109368298.00,-2.0815713,-9.560768,0.701591
1421109368318.00,-1.9808308,-9.636062,0.7659572
1421109368387.00,-2.0549269,-9.457034,0.7671547
1421109368388.00,-2.0124152,-9.526489,0.7367679
1421109368389.00,-1.9314336,-9.522897,0.7111711
1421109368398.00,-1.9375708,-9.558823,0.75712556
1421109368418.00,-2.0339704,-9.548793,0.8390053
1421109368438.00,-1.9261944,-9.467662,0.8744815
1421109368458.00,-1.8284477,-9.481882,0.7728429
1421109368480.00,-1.9100281,-9.502839,0.78242296
1421109368504.00,-2.0713925,-9.651031,0.8710387
1421109368518.00,-1.95239,-9.528585,0.8827144
1421109368539.00,-1.939367,-9.508078,0.7529343
1421109368559.00,-1.88503,-9.528436,0.7276369
1421109368578.00,-1.9984941,-9.581875,0.8437953
1421109368598.00,-2.0288808,-9.5423565,0.909359
1421109368618.00,-1.9080821,-9.5335245,0.7288344
1421109368638.00,-1.9478993,-9.509126,0.77419007
1421109368661.00,-1.9785855,-9.532627,0.74739575
1421109368737.00,-1.9285895,-9.601633,0.80592406
1421109368738.00,-2.061513,-9.671688,0.79739183
1421109368739.00,-1.9761904,-9.59834,0.8640033
1421109368740.00,-1.9535875,-9.495355,0.82837737
1421109368758.00,-2.0743864,-9.52185,0.767005
1421109368778.00,-2.0466938,-9.499396,0.78466827
1421109368799.00,-1.9202069,-9.636661,0.78496766
1421109368818.00,-1.9543359,-9.556128,0.76251435
1421109368838.00,-1.9770886,-9.493109,0.68662214
1421109368859.00,-1.9636166,-9.513916,0.8731343
1421109368878.00,-1.8456619,-9.546398,0.8972342
1421109368899.00,-1.9014958,-9.618698,0.7960446
1421109368920.00,-1.9327807,-9.5230465,0.8626561
1421109368942.00,-1.9390677,-9.522897,0.780477
1421109368960.00,-1.9240988,-9.483978,0.72703815
1421109368980.00,-2.026486,-9.464219,0.7867639
1421109369000.00,-2.063908,-9.513167,0.82598233
1421109369088.00,-2.001488,-9.474547,0.7658075
1421109369089.00,-1.9359242,-9.5934,0.78212357
1421109369090.00,-1.873055,-9.580228,0.8812175
1421109369091.00,-2.0468435,-9.585168,0.7858658
1421109369098.00,-1.8727555,-9.549242,0.83376616
1421109369123.00,-2.0074754,-9.605824,0.7256909
1421109369146.00,-1.9871178,-9.553583,0.87148774
1421109369159.00,-1.7747095,-9.51167,0.77972853
1421109369179.00,-1.9565812,-9.427096,0.8228389
1421109369198.00,-1.979783,-9.56466,0.7623646
1421109369218.00,-1.995201,-9.480086,0.83915496
1421109369239.00,-1.9868184,-9.5528345,0.7518864
1421109369258.00,-1.9160156,-9.508078,0.70937485
1421109369280.00,-2.083667,-9.452992,0.7607181
1421109369301.00,-1.8841319,-9.496402,0.7662566
1421109369319.00,-2.0022364,-9.53113,0.74634796
1421109369338.00,-1.9158659,-9.548793,0.80757064
1421109369406.00,-1.9600241,-9.519903,0.68437684
1421109369407.00,-2.0715423,-9.451495,0.62854296
1421109369407.00,-1.9493963,-9.510773,0.6746471
1421109369419.00,-1.9699036,-9.557026,0.76386154
1421109369438.00,-1.9643651,-9.532927,0.7515871
1421109369459.00,-1.9648142,-9.509275,0.66027695
1421109369478.00,-1.9905607,-9.533674,0.7458989
1421109369498.00,-1.8639239,-9.618099,0.7858658
1421109369519.00,-1.8627264,-9.522747,0.85397416
1421109369538.00,-1.9767892,-9.452543,0.83152086
1421109369558.00,-2.0686982,-9.4877205,0.7818242
1421109369578.00,-1.9261944,-9.600884,0.8205936
1421109369598.00,-1.9240988,-9.524394,0.7393126
1421109369618.00,-1.9309845,-9.529184,0.8295749
1421109369638.00,-1.9435583,-9.592503,0.83002394
1421109369704.00,-2.0429516,-9.471704,0.85786605
1421109369706.00,-2.0570223,-9.524993,0.8855585
1421109369707.00,-2.0618124,-9.41587,0.75682616
1421109369718.00,-2.1100123,-9.426497,0.875679
1421109369738.00,-1.9580781,-9.529484,0.9605525
1421109369758.00,-1.9688557,-9.585018,0.82358736
1421109369778.00,-1.868714,-9.608219,0.8403525
1421109369799.00,-1.9905607,-9.485924,0.735271
1421109369819.00,-2.0609143,-9.548943,0.7234456
1421109369840.00,-1.9709514,-9.592952,0.72299653
1421109369861.00,-1.9943029,-9.4369755,0.7548802
1421109369880.00,-1.9242485,-9.479787,0.803529
1421109369898.00,-1.8964064,-9.648187,0.8801697
1421109369921.00,-2.0555255,-9.53607,0.71341646
1421109369942.00,-1.873055,-9.53113,0.73048097
1421109369960.00,-1.884581,-9.471404,0.6225554
1421109370028.00,-1.9022442,-9.52185,0.73751634
1421109370029.00,-2.027833,-9.491313,0.7418573
1421109370030.00,-1.7459693,-9.52634,0.7220984
1421109370039.00,-1.8265017,-9.565259,0.5780978
1421109370058.00,-1.8964064,-9.609866,0.7165599
1421109370078.00,-1.9688557,-9.557924,0.88031936
1421109370100.00,-1.9443069,-9.621093,0.8955876
1421109370118.00,-1.9079324,-9.58906,0.8162526
1421109370138.00,-1.8992505,-9.55059,0.7345226
1421109370159.00,-2.0845652,-9.506432,0.7120693
1421109370179.00,-1.9715501,-9.456285,0.73332506
1421109370198.00,-2.0073256,-9.468261,0.68781966
1421109370219.00,-1.8544936,-9.5696,0.80307996
1421109370238.00,-1.8655705,-9.501492,0.70787793
1421109370258.00,-1.8823357,-9.498797,0.6655161
1421109370278.00,-2.0260367,-9.507778,0.7406598
1421109370299.00,-1.8550923,-9.544601,0.80367875
1421109370353.00,-1.9136206,-9.586514,0.8384065
1421109370354.00,-1.8631755,-9.543704,0.90501803
1421109370358.00,-2.0290306,-9.544751,0.7662566
1421109370382.00,-2.0862117,-9.479338,0.7244934
1421109370398.00,-1.975442,-9.526639,0.87088895
1421109370418.00,-2.0549269,-9.510324,0.8205936
1421109370438.00,-1.924997,-9.48817,0.8096663
1421109370458.00,-2.05822,-9.565109,0.927621
1421109370478.00,-1.9246975,-9.611513,0.8560698
1421109370499.00,-1.9633173,-9.456136,0.8041278
1421109370518.00,-1.9032921,-9.48293,0.81789917
1421109370538.00,-1.9467018,-9.506282,0.71057236
1421109370563.00,-1.9279907,-9.573043,0.7590715
1421109370582.00,-1.8574873,-9.54071,0.79739183
1421109370599.00,-2.0547771,-9.599089,0.8545729
1421109370619.00,-1.9652632,-9.590556,0.75278455
1421109370689.00,-1.8940114,-9.590556,0.7640112
1421109370689.00,-1.988914,-9.602981,0.7336244
1421109370690.00,-2.0170555,-9.4965515,0.72554123
1421109370701.00,-1.9664607,-9.532477,0.6123766
1421109370719.00,-1.9267932,-9.552685,0.7381151
1421109370739.00,-1.814826,-9.52589,0.7243437
1421109370758.00,-1.9585272,-9.483679,0.78945833
1421109370781.00,-1.9594253,-9.621392,0.75143737
1421109370801.00,-2.0333717,-9.56451,0.8613089
1421109370823.00,-2.1415966,-9.395811,0.68767
1421109370841.00,-1.9980451,-9.5158615,0.80727124
1421109370858.00,-2.0791764,-9.4877205,0.6743477
1421109370878.00,-2.0363653,-9.473799,0.80936694
1421109370899.00,-2.069147,-9.569301,0.8650511
1421109370918.00,-2.0113673,-9.503139,0.83316743
1421109370939.00,-2.0437002,-9.604178,0.8464897
1421109371027.00,-1.87066,-9.441167,0.7234456
1421109371028.00,-1.7898281,-9.380842,0.8322693
1421109371028.00,-1.8357825,-9.446107,0.74395293
1421109371029.00,-1.7277073,-9.472752,0.7225475
1421109371039.00,-1.6774118,-9.724677,0.7081773
1421109371059.00,-1.8110838,-9.605974,0.7348219
1421109371079.00,-2.0068767,-9.606873,0.79484713
1421109371099.00,-1.8628762,-9.665999,0.45864624
1421109371118.00,-2.0589683,-9.553284,0.6262976
1421109371138.00,-2.1950355,-9.503886,0.7972421
1421109371158.00,-1.9064355,-9.4193125,0.8267308
1421109371178.00,-1.7892293,-9.406589,0.7044351
1421109371198.00,-1.6823516,-9.485774,0.73721695
1421109371218.00,-1.9154168,-9.536369,0.83795744
1421109371241.00,-2.0389102,-9.470955,0.7861652
1421109371259.00,-1.9815793,-9.448801,0.7710466
1421109371322.00,-1.9122734,-9.540859,0.8611592
1421109371323.00,-1.7703685,-9.595047,0.9630972
1421109371324.00,-1.7488133,-9.608219,0.9523196
1421109371339.00,-1.8996996,-9.554781,0.93660235
1421109371359.00,-1.8983524,-9.534573,0.805475
1421109371379.00,-2.0056791,-9.571546,0.8111632
1421109371402.00,-2.0748353,-9.424552,0.7981403
1421109371423.00,-1.9748433,-9.5793295,0.7792795
1421109371441.00,-2.0540285,-9.605974,0.868494
1421109371459.00,-2.0227437,-9.504635,0.9262738
1421109371479.00,-1.9300864,-9.543405,0.86325485
1421109371499.00,-1.9229013,-9.489816,0.8529263
1421109371520.00,-2.011517,-9.432934,0.8027806
1421109371539.00,-1.9746937,-9.604926,0.7541318
1421109371559.00,-1.9833755,-9.640103,0.69994444
1421109371579.00,-2.092349,-9.603879,0.72389466
1421109371599.00,-2.1743784,-9.673184,0.7458989
1421109371619.00,-2.1420455,-9.543105,0.723745
1421109371683.00,-2.0447478,-9.455237,0.719404
1421109371684.00,-2.1505778,-9.503437,0.69066375
1421109371685.00,-2.0056791,-9.538764,0.6890172
1421109371700.00,-1.9438577,-9.56481,0.66506696
1421109371719.00,-1.9267932,-9.556128,0.71596116
1421109371739.00,-1.83698,-9.413325,0.68018556
1421109371759.00,-1.8991008,-9.5335245,0.6658154
1421109371779.00,-2.054328,-9.610465,0.642464
1421109371799.00,-1.8931133,-9.57439,0.6595285
1421109371819.00,-1.6778609,-9.605974,0.6436615
1421109371839.00,-1.8226099,-9.507479,0.63393176
1421109371863.00,-1.950893,-9.633966,0.70802766
1421109371881.00,-1.9944525,-9.611513,0.6608757
1421109371901.00,-1.8925145,-9.65627,0.72389466
1421109371920.00,-1.9607725,-9.526489,0.72389466
1421109371941.00,-1.9209553,-9.514215,0.83690965
1421109372010.00,-2.0118165,-9.598041,0.9261241
1421109372012.00,-1.8788928,-9.476943,0.7991881
1421109372013.00,-1.9221529,-9.5455,0.6652167
1421109372019.00,-1.8082397,-9.5455,0.74290514
1421109372039.00,-1.8769469,-9.490864,0.742007
1421109372059.00,-1.8080901,-9.510024,0.6164181
1421109372098.00,-2.0308268,-9.510174,0.8193961
1421109372103.00,-1.9443069,-9.478589,0.82493454
1421109372119.00,-1.9612216,-9.656868,0.7433542
1421109372140.00,-2.0463946,-9.69429,0.7120693
1421109372163.00,-1.9181113,-9.527238,0.61552
1421109372192.00,-1.8980529,-9.539063,0.64470935
1421109372199.00,-1.7598903,-9.505833,0.7966434
1421109372219.00,-1.7289047,-9.525292,0.8190967
1421109372239.00,-1.7477655,-9.492959,0.7870633
1421109372259.00,-1.884581,-9.65627,0.7364685
1421109372279.00,-1.9467018,-9.5217,0.66910857
1421109372347.00,-1.9302361,-9.422007,0.76790315
1421109372349.00,-1.8390756,-9.549541,0.7152127
1421109372350.00,-1.9950513,-9.552385,0.8240364
1421109372359.00,-1.9140697,-9.565409,0.68243086
1421109372379.00,-2.0411553,-9.5737915,0.8080197
1421109372399.00,-2.050436,-9.46886,0.812211
1421109372419.00,-1.929787,-9.538914,0.72494245
1421109372439.00,-2.0073256,-9.520203,0.7240443
1421109372459.00,-1.954785,-9.527987,0.66671354
1421109372479.00,-2.0784278,-9.567504,0.6120772
1421109372499.00,-1.9507434,-9.644295,0.7149133
1421109372519.00,-1.9429595,-9.448202,0.66970736
1421109372539.00,-1.9119741,-9.460477,0.6864725
1421109372559.00,-1.9693048,-9.600884,0.69246
1421109372579.00,-1.941313,-9.482182,0.8544232
1421109372599.00,-1.9586769,-9.53607,0.8652008
1421109372657.00,-1.9598744,-9.45853,0.85936296
1421109372658.00,-1.7896783,-9.528436,0.7405101
1421109372660.00,-2.002386,-9.496701,0.64860123
1421109372679.00,-1.8994002,-9.521101,0.7447014
1421109372700.00,-2.0161574,-9.56466,0.54247195
1421109372719.00,-1.9631675,-9.445358,0.60608965
1421109372740.00,-1.9077828,-9.62259,0.6756949
1421109372771.00,-2.0667522,-9.653725,0.7572752
1421109372781.00,-2.043251,-9.577384,0.70967424
1421109372808.00,-2.041305,-9.481283,0.6930588
1421109372819.00,-2.0434008,-9.578281,0.66312104
1421109372839.00,-2.0064275,-9.5696,0.5968089
1421109372859.00,-2.1070185,-9.430689,0.7030879
1421109372879.00,-1.9604732,-9.510324,0.7686516
1421109372900.00,-1.981729,-9.594298,0.7563771
1421109372967.00,-2.0853136,-9.619745,0.7458989
1421109372968.00,-2.0291803,-9.485475,0.6132747
1421109372969.00,-1.95718,-9.369915,0.6512956
1421109372980.00,-2.0160077,-9.469159,0.6493497
1421109372999.00,-1.8868263,-9.541907,0.5798941
1421109373020.00,-1.9760408,-9.637709,0.6092331
1421109373040.00,-1.9351758,-9.445209,0.64470935
1421109373060.00,-1.8558408,-9.617051,0.70967424
1421109373081.00,-1.9359242,-9.597442,0.7688013
1421109373101.00,-2.0386107,-9.5600195,0.71506304
1421109373120.00,-2.0052302,-9.487421,0.6740483
1421109373139.00,-2.0002904,-9.73321,0.68677187
1421109373162.00,-2.021247,-9.616602,0.68048495
1421109373179.00,-2.055825,-9.496252,0.80053526
1421109373200.00,-2.1110601,-9.469309,0.7104227
1421109373265.00,-1.9811302,-9.416019,0.73751634
1421109373266.00,-1.7796493,-9.626781,0.74889266
1421109373268.00,-1.8902692,-9.366472,0.69635195
1421109373279.00,-1.920656,-9.419762,0.7228468
1421109373299.00,-1.975442,-9.553284,0.6439609
1421109373322.00,-1.9378701,-9.542506,0.57405627
1421109373339.00,-1.8766475,-9.616901,0.64605653
1421109373359.00,-2.0097208,-9.55553,0.59980273
1421109373379.00,-1.9751427,-9.48278,0.6686595
1421109373399.00,-1.8097366,-9.658515,0.6012996
1421109373422.00,-1.9992425,-9.6091175,0.6777905
1421109373439.00,-2.0110679,-9.641002,0.6777905
1421109373459.00,-1.9592757,-9.457932,0.7312294
1421109373479.00,-1.9276913,-9.475296,0.78122544
1421109373500.00,-1.8030007,-9.58921,0.80592406
1421109373521.00,-1.8714083,-9.57903,0.8152048
1421109373541.00,-1.8106347,-9.502689,0.78347075
1421109373620.00,-1.8543439,-9.60343,0.7455995
1421109373621.00,-1.8923649,-9.566008,0.7283853
1421109373622.00,-2.0109184,-9.530531,0.7813751
1421109373623.00,-2.1713846,-9.51661,0.91100556
1421109373640.00,-2.372117,-9.662107,0.9446855
1421109373659.00,-2.4492068,-9.445059,0.9818083
1421109373679.00,-2.3906786,-9.5037365,1.0341994
1421109373700.00,-2.1757255,-9.509275,0.9801617
1421109373719.00,-1.8459613,-9.485175,0.97597045
1421109373739.00,-1.5158976,-9.449699,0.87552935
1421109373759.00,-1.2576846,-9.572444,0.75877213
1421109373781.00,-1.1204201,-9.692045,0.85247725
1421109373799.00,-1.2088861,-9.528136,0.8000862
1421109373819.00,-1.3385166,-9.464219,0.9648935
1421109373839.00,-1.4506334,-9.508826,0.7990384
1421109373860.00,-1.8019528,-9.514365,0.83406556
1421109373880.00,-2.0155587,-9.595496,0.7405101
1421109373956.00,-2.2194347,-9.360485,0.15193406
1421109373958.00,-2.472708,-9.389974,-0.5947133
1421109373959.00,-2.4864793,-9.608219,-0.39487883
1421109373960.00,-2.6773324,-9.50224,0.65638506
1421109373980.00,-2.9162357,-9.574539,1.1246114
1421109374000.00,-2.6720934,-9.975855,1.1621833
1421109374022.00,-2.103426,-9.724527,1.185385
1421109374041.00,-1.7574953,-9.441317,1.194516
1421109374060.00,-1.6907341,-9.187295,1.0258168
1421109374080.00,-1.6265177,-9.338929,0.7623646
1421109374099.00,-1.3446537,-9.563164,0.6863228
1421109374122.00,-1.1317964,-9.815688,0.82209045
1421109374139.00,-1.5739769,-9.533375,0.9602531
1421109374159.00,-2.1939876,-9.373208,0.74006104
1421109374179.00,-2.707869,-9.397159,0.61686724
1421109374200.00,-2.7274783,-9.466913,0.76191556
1421109374266.00,-2.530338,-9.484128,0.6550378
1421109374267.00,-2.3141875,-9.498348,0.5930667
1421109374269.00,-2.1959336,-9.571546,0.55130357
1421109374280.00,-1.9992425,-9.607921,0.59516233
1421109374300.00,-1.7693207,-9.479487,0.7478449
1421109374319.00,-1.7467177,-9.544601,0.7649094
1421109374340.00,-1.8422191,-9.5452,0.9111552
1421109374361.00,-2.01481,-9.462273,0.8532257
1421109374379.00,-2.0537293,-9.629176,0.7493417
1421109374399.00,-1.9094293,-9.6179495,0.7110214
1421109374420.00,-1.9684067,-9.479787,0.60489213
1421109374439.00,-1.9517913,-9.5986395,0.5788463
1421109374459.00,-1.9622694,-9.631122,0.7006929
1421109374481.00,-1.8977536,-9.570049,0.6749464
1421109374502.00,-1.9493963,-9.555828,0.75712556
1421109374521.00,-1.9559826,-9.401949,0.7500902
1421109374540.00,-1.9425105,-9.536669,0.7203021
1421109374613.00,-1.9486477,-9.585018,0.6420149
1421109374614.00,-1.8550923,-9.598939,0.68692154
1421109374615.00,-2.0145109,-9.586964,0.72898406
1421109374624.00,-1.997147,-9.489367,0.79739183
1421109374639.00,-1.886976,-9.499097,0.7503896
1421109374659.00,-1.9745439,-9.547147,0.76535845
1421109374679.00,-2.0146606,-9.546099,0.80592406
1421109374702.00,-1.8934126,-9.476494,0.8238867
1421109374720.00,-1.952839,-9.563762,0.9253757
1421109374740.00,-1.8122814,-9.449849,0.77269316
1421109374760.00,-1.8030007,-9.447753,0.77838135
1421109374779.00,-1.8935623,-9.568103,0.73721695
1421109374800.00,-1.8922151,-9.693243,0.8117619
1421109374821.00,-1.8755996,-9.543255,0.76895094
1421109374840.00,-1.79851,-9.602981,0.86639833
1421109374860.00,-1.921105,-9.6284275,0.7402107
1421109374927.00,-2.056723,-9.575587,0.75652677
1421109374927.00,-2.009571,-9.577534,0.84634
1421109374929.00,-2.0261865,-9.453442,0.75967026
1421109374939.00,-2.0520828,-9.423055,0.6954538
1421109374959.00,-2.0127146,-9.423953,0.84963316
1421109374979.00,-2.0152593,-9.480086,0.8833131
1421109374999.00,-2.1104612,-9.451196,0.9485774
1421109375020.00,-1.8829345,-9.463321,0.8518785
1421109375039.00,-1.9631675,-9.538165,0.7905061
1421109375060.00,-2.0820205,-9.471704,0.9279204
1421109375079.00,-1.9728973,-9.486223,0.8704399
1421109375100.00,-1.9998413,-9.568402,0.7066805
1421109375121.00,-2.0429516,-9.58412,0.6828799
1421109375141.00,-2.0444486,-9.462722,0.8147557
1421109375162.00,-2.0320244,-9.626183,0.82493454
1421109375180.00,-2.0422032,-9.579928,0.70533323
1421109375203.00,-2.0190015,-9.525292,0.71191955
1421109375256.00,-2.007625,-9.553733,0.762664
1421109375257.00,-1.9818786,-9.639654,0.8493338
1421109375268.00,-1.9573298,-9.590856,0.8095166
1421109375284.00,-1.8953586,-9.536669,0.75712556
1421109375299.00,-1.8952088,-9.458232,0.68767
1421109375320.00,-1.8998493,-9.547895,0.75173676
1421109375339.00,-1.9651135,-9.573193,0.84858537
1421109375359.00,-1.9074833,-9.638756,0.6933582
1421109375382.00,-2.0022364,-9.597442,0.6402187
1421109375400.00,-2.0853136,-9.623937,0.6478528
1421109375420.00,-1.9450552,-9.566457,0.683329
1421109375440.00,-2.0974383,-9.558224,0.62569886
1421109375460.00,-2.1204903,-9.488319,0.64860123
1421109375484.00,-1.9984941,-9.527388,0.7232959
1421109375501.00,-1.9827768,-9.775722,0.6854246
1421109375519.00,-1.9597248,-9.543405,0.66566575
1421109375608.00,-2.0724404,-9.599538,0.6008505
1421109375609.00,-2.1302202,-9.568253,0.77164537
1421109375610.00,-2.1402493,-9.541608,0.8364606
1421109375612.00,-2.0354671,-9.459878,0.85786605
1421109375619.00,-2.060166,-9.368568,0.7722441
1421109375641.00,-2.0104692,-9.383686,0.85217786
1421109375660.00,-2.0454965,-9.530681,0.80906755
1421109375679.00,-2.1179457,-9.529184,0.8479866
1421109375701.00,-1.911525,-9.477691,0.89903045
1421109375720.00,-1.9633173,-9.577833,0.93360853
1421109375740.00,-1.9907103,-9.597142,0.65488815
1421109375770.00,-2.0948937,-9.4976,0.7969428
1421109375780.00,-2.0040326,-9.528735,0.746797
1421109375805.00,-1.9757414,-9.473051,0.6783893
1421109375820.00,-1.9947519,-9.603879,0.76730436
1421109375840.00,-1.9896625,-9.415271,0.7677534
1421109375905.00,-2.09669,-9.602382,0.7674541
1421109375907.00,-1.8781444,-9.488468,0.7800279
1421109375908.00,-1.9543359,-9.50224,0.80906755
1421109375920.00,-1.9978954,-9.391769,0.8390053
1421109375940.00,-2.0468435,-9.474547,0.78975767
1421109375959.00,-1.9386187,-9.63217,0.65878004
1421109375980.00,-2.0597167,-9.589658,0.6544391
1421109376002.00,-2.0672011,-9.506581,0.58962387
1421109376022.00,-1.9622694,-9.552685,0.719404
1421109376042.00,-2.0507355,-9.556726,0.70368665
1421109376069.00,-2.0785775,-9.552535,0.7325766
1421109376081.00,-2.0678,-9.597591,0.6882687
1421109376100.00,-1.8223104,-9.631122,0.7830217
1421109376120.00,-1.9987935,-9.4860735,0.8628058
1421109376139.00,-1.9579284,-9.502989,0.83152086
1421109376160.00,-2.0026853,-9.4981985,0.8842113
1421109376224.00,-2.0633094,-9.3806925,0.8509804
1421109376225.00,-2.002386,-9.536968,0.8282277
1421109376226.00,-2.0007393,-9.460627,0.8758287
1421109376240.00,-1.9814296,-9.414822,0.7662566
1421109376260.00,-2.0236418,-9.495055,0.7250922
1421109376280.00,-2.0865111,-9.547895,0.6397696
1421109376300.00,-2.0258873,-9.582623,0.7092252
1421109376320.00,-2.1405487,-9.594897,0.7378157
1421109376343.00,-2.0589683,-9.55523,0.7038364
1421109376368.00,-2.0627105,-9.522148,0.60579026
1421109376380.00,-1.8607805,-9.558373,0.69754946
1421109376404.00,-1.9070343,-9.574241,0.6227051
1421109376420.00,-2.033222,-9.501342,0.6566844
1421109376440.00,-2.0230432,-9.554332,0.61372375
1421109376461.00,-1.9261944,-9.599688,0.65399003
1421109376480.00,-1.9839743,-9.604926,0.68841845
1421109376573.00,-2.1616547,-9.599238,0.73182815
1421109376574.00,-2.0191512,-9.604029,0.6280939
1421109376575.00,-1.9929557,-9.54535,0.63213545
1421109376576.00,-2.027833,-9.594448,0.69066375
1421109376583.00,-2.0116668,-9.4976,0.83286804
1421109376600.00,-2.0305276,-9.5230465,0.637674
1421109376620.00,-1.9419118,-9.494007,0.61073
1421109376640.00,-2.101929,-9.446107,0.7934999
1421109376670.00,-2.0050805,-9.551188,0.69575316
1421109376680.00,-1.9887643,-9.684112,0.7110214
1421109376700.00,-1.972598,-9.5217,0.73063064
1421109376720.00,-1.9429595,-9.590257,0.7250922
1421109376740.00,-1.9471508,-9.504785,0.65892977
1421109376760.00,-1.8634748,-9.479637,0.7773335
1421109376780.00,-1.9802321,-9.517958,0.8105644
1421109376800.00,-2.0140617,-9.614357,0.74544984
1421109376820.00,-1.9722986,-9.434581,0.6189629
1421109376890.00,-2.0031345,-9.457633,0.7580237
1421109376891.00,-1.9465522,-9.55508,0.63243484
1421109376892.00,-2.0077748,-9.529633,0.7006929
1421109376901.00,-1.9535875,-9.573642,0.71700895
1421109376920.00,-1.9553838,-9.533375,0.81131285
1421109376940.00,-2.0851638,-9.569151,0.7518864
1421109376960.00,-1.9874171,-9.520352,0.7461983
1421109376980.00,-2.0029848,-9.611513,0.6050418
1421109377003.00,-1.9142194,-9.6657,0.71341646
1421109377029.00,-2.0080743,-9.569001,0.73467225
1421109377040.00,-1.9387683,-9.582623,0.5743556
1421109377061.00,-1.8883232,-9.429341,0.63213545
1421109377080.00,-1.9422112,-9.528136,0.6724017
1421109377101.00,-1.9338286,-9.544153,0.7415579
1421109377125.00,-2.0266356,-9.583221,0.7135661
1421109377187.00,-2.1395009,-9.561517,0.69231033
1421109377188.00,-2.0410056,-9.605226,0.7209009
1421109377189.00,-2.0598664,-9.448352,0.7696994
1421109377200.00,-1.9721489,-9.406589,0.74230635
1421109377220.00,-1.9672092,-9.490415,0.8265811
1421109377240.00,-1.9175125,-9.541458,0.7807764
1421109377260.00,-1.9642154,-9.556427,0.70683014
1421109377281.00,-1.8715581,-9.491313,0.7008426
1421109377300.00,-1.9046392,-9.570049,0.7056326
1421109377320.00,-1.9377205,-9.630524,0.70368665
1421109377342.00,-2.0848646,-9.509575,0.6521938
1421109377360.00,-1.9844234,-9.489367,0.74350387
1421109377380.00,-2.0426524,-9.4805355,0.7445517
1421109377400.00,-1.9197578,-9.552685,0.6813831
1421109377422.00,-2.0607646,-9.522897,0.6330336
1421109377443.00,-1.9803817,-9.539662,0.66252226
1421109377462.00,-1.9925065,-9.582323,0.7590715
1421109377562.00,-2.05328,-9.558224,0.7274872
1421109377563.00,-2.14474,-9.590556,0.6173163
1421109377564.00,-2.0564237,-9.507179,0.6550378
1421109377565.00,-2.0773802,-9.543854,0.66656387
1421109377566.00,-1.8747015,-9.552086,0.58213943
1421109377593.00,-1.9519409,-9.546099,0.72134995
1421109377602.00,-2.009122,-9.588461,0.6788384
1421109377620.00,-1.9833755,-9.571695,0.737666
1421109377640.00,-2.0077748,-9.520951,0.56462586
1421109377662.00,-2.0109184,-9.48293,0.69725007
1421109377681.00,-2.0353174,-9.53577,0.6575825
1421109377700.00,-2.066303,-9.4667635,0.64470935
1421109377720.00,-2.0733385,-9.453891,0.7725435
1421109377740.00,-2.004781,-9.561217,0.73751634
1421109377760.00,-2.1035757,-9.572743,0.6978488
1421109377783.00,-1.9079324,-9.440867,0.70248914
1421109377863.00,-1.9362236,-9.509874,0.6369255
1421109377864.00,-2.1234841,-9.494756,0.6828799
1421109377865.00,-2.0074754,-9.467662,0.5712122
1421109377866.00,-1.9791843,-9.618399,0.6143225
1421109377880.00,-2.015409,-9.563313,0.5894742
1421109377901.00,-2.0651057,-9.610315,0.49442184
1421109377920.00,-1.9085312,-9.432634,0.56597304
1421109377940.00,-2.0354671,-9.479038,0.69859725
1421109377965.00,-1.9649638,-9.513018,0.6253995
1421109377983.00,-2.0083735,-9.449849,0.6734496
1421109378000.00,-2.0540285,-9.445059,0.76371187
1421109378021.00,-2.0778291,-9.479338,0.8267308
1421109378040.00,-1.8757493,-9.510623,0.7382648
1421109378060.00,-1.9690055,-9.450598,0.8225395
1421109378080.00,-1.9835253,-9.371712,0.7189549
1421109378100.00,-2.104324,-9.537716,0.8083191
1421109378122.00,-2.0609143,-9.527088,0.6542894
1421109378188.00,-2.0270846,-9.562415,0.67644334
1421109378189.00,-2.1074674,-9.543704,0.64186525
1421109378189.00,-2.0085232,-9.614357,0.7388635
1421109378210.00,-1.9576291,-9.60807,0.7984396
1421109378221.00,-2.0883074,-9.476494,0.74544984
1421109378241.00,-2.0857627,-9.452394,0.651595
1421109378260.00,-2.0305276,-9.574689,0.6914122
1421109378282.00,-2.0398083,-9.591604,0.6715036
1421109378305.00,-2.0190015,-9.585318,0.7319778
1421109378320.00,-1.9856209,-9.440568,0.7417076
1421109378340.00,-1.9490968,-9.438922,0.6297405
1421109378360.00,-2.0603156,-9.398655,0.82717985
1421109378380.00,-1.9318826,-9.489816,0.6941066
1421109378401.00,-1.9431093,-9.516011,0.78601545
1421109378423.00,-1.9312838,-9.489367,0.6996451
1421109378440.00,-1.9267932,-9.558373,0.6676117
1421109378514.00,-1.9550843,-9.619745,0.7171587
1421109378515.00,-1.9703526,-9.440568,0.8111632
1421109378516.00,-2.0032842,-9.540112,0.6297405
1421109378521.00,-2.0865111,-9.540112,0.7069798
1421109378540.00,-2.0082238,-9.514365,0.64470935
1421109378560.00,-1.932182,-9.437874,0.7113208
1421109378580.00,-1.943259,-9.385483,0.70967424
1421109378601.00,-1.9724482,-9.662257,0.7297325
1421109378620.00,-1.8794916,-9.608818,0.791554
1421109378641.00,-1.9676583,-9.467961,0.6234535
1421109378661.00,-1.9294876,-9.534872,0.6917116
1421109378680.00,-1.9594253,-9.422755,0.7114705
1421109378700.00,-1.992806,-9.591754,0.7764354
1421109378721.00,-1.91871,-9.498498,0.7197034
1421109378744.00,-2.099534,-9.4474535,0.678539
1421109378763.00,-2.004332,-9.442814,0.7406598
1421109378780.00,-1.9794836,-9.58921,0.6170169
1421109378851.00,-2.0203485,-9.595047,0.6981482
1421109378852.00,-2.0598664,-9.526639,0.74949145
1421109378853.00,-2.030677,-9.557924,0.6084846
1421109378860.00,-1.9818786,-9.500593,0.7060817
1421109378883.00,-1.943259,-9.481732,0.75308394
1421109378901.00,-1.9419118,-9.549242,0.6566844
1421109378921.00,-2.045646,-9.621692,0.71506304
1421109378942.00,-1.9751427,-9.6178,0.6101312
1421109378965.00,-1.9690055,-9.467063,0.76221496
1421109378982.00,-2.08217,-9.509575,0.6969507
1421109379001.00,-2.1161494,-9.530231,0.7557784
1421109379022.00,-1.9943029,-9.355246,0.5733078
1421109379041.00,-1.9955003,-9.474847,0.7273375
1421109379063.00,-2.009122,-9.549691,0.8092172
1421109379083.00,-1.943259,-9.561367,0.637674
1421109379104.00,-2.018253,-9.577683,0.7250922
1421109379196.00,-2.0098705,-9.420211,0.80218184
1421109379197.00,-1.9077828,-9.49236,0.83286804
1421109379198.00,-1.889371,-9.455387,0.62195665
1421109379200.00,-1.9344274,-9.440119,0.7538324
1421109379201.00,-1.909579,-9.494456,0.7569759
1421109379221.00,-1.9073337,-9.503288,0.7656578
1421109379241.00,-1.9619701,-9.492062,0.6893166
1421109379260.00,-1.971101,-9.436676,0.7141649
1421109379282.00,-1.9243982,-9.5351715,0.7322772
1421109379302.00,-2.0893552,-9.486223,0.7370673
1421109379321.00,-1.9776874,-9.511071,0.7803273
1421109379341.00,-1.992806,-9.581126,0.74485105
1421109379362.00,-1.9646645,-9.576935,0.75458086
1421109379387.00,-1.9984941,-9.586664,0.83316743
1421109379401.00,-2.0122654,-9.491313,0.7123686
1421109379421.00,-2.0327728,-9.672136,0.68153274
1421109379493.00,-1.9348764,-9.479338,0.60264677
1421109379494.00,-2.0118165,-9.579479,0.6030958
1421109379495.00,-2.033222,-9.531878,0.7310797
1421109379503.00,-2.0706441,-9.517059,0.7348219
1421109379524.00,-1.9675086,-9.557475,0.73871386
1421109379541.00,-2.1706362,-9.619745,0.72868466
1421109379562.00,-2.0657043,-9.565409,0.7220984
1421109379583.00,-2.0453467,-9.461375,0.66536635
1421109379603.00,-1.9743942,-9.5351715,0.7342232
1421109379621.00,-2.0441492,-9.470206,0.7686516
1421109379644.00,-2.006727,-9.465267,0.6879694
1421109379661.00,-2.016307,-9.464069,0.76251435
1421109379681.00,-2.0281324,-9.547596,0.6836284
1421109379701.00,-1.9308348,-9.423354,0.76655596
1421109379721.00,-2.0818708,-9.480685,0.87014055
1421109379742.00,-1.9233503,-9.429192,0.7655081
1421109379805.00,-1.8844314,-9.465267,0.6756949
1421109379806.00,-2.0845652,-9.570349,0.75652677
1421109379807.00,-1.906735,-9.571096,0.7087761
1421109379827.00,-1.9212548,-9.513617,0.751138
1421109379844.00,-2.02933,-9.558224,0.70024383
1421109379863.00,-2.061064,-9.570199,0.5894742
1421109379881.00,-2.0077748,-9.6002865,0.75368273
1421109379902.00,-2.0320244,-9.532927,0.6677614
1421109379921.00,-2.0348685,-9.596544,0.7695497
1421109379943.00,-1.9300864,-9.639355,0.683329
1421109379973.00,-1.9660116,-9.56975,0.75023985
1421109379981.00,-1.9384689,-9.631721,0.5510042
1421109380001.00,-1.934577,-9.506432,0.68557435
1421109380021.00,-1.9124231,-9.570349,0.7882608
1421109380040.00,-1.9604732,-9.584868,0.7008426
1421109380061.00,-2.068848,-9.528885,0.7111711
1421109380144.00,-1.9478993,-9.500144,0.73721695
1421109380145.00,-2.0137625,-9.602531,0.6942563
1421109380146.00,-2.0061283,-9.460627,0.7801776
1421109380147.00,-2.1155508,-9.522597,0.7500902
1421109380165.00,-1.988465,-9.642199,0.6917116
1421109380181.00,-1.8841319,-9.613009,0.6839278
1421109380201.00,-2.1146526,-9.585916,0.68243086
1421109380221.00,-2.0417542,-9.565858,0.7140152
1421109380241.00,-2.0648062,-9.514515,0.75368273
1421109380261.00,-2.0110679,-9.558373,0.77957886
1421109380289.00,-1.9959494,-9.644444,0.8134085
1421109380301.00,-2.0689974,-9.575887,0.7930508
1421109380321.00,-2.0136127,-9.441616,0.628992
1421109380341.00,-1.898502,-9.562715,0.6703061
1421109380361.00,-1.9425105,-9.602831,0.7060817
1421109380381.00,-1.9606229,-9.414672,0.76895094
1421109380401.00,-2.049089,-9.426947,0.75428146
1421109380512.00,-1.9977456,-9.374256,0.8238867
1421109380514.00,-2.0152593,-9.41078,0.72958285
1421109380515.00,-1.8672171,-9.480685,0.7547305
1421109380518.00,-1.9592757,-9.474098,0.7652087
1421109380521.00,-1.9651135,-9.511071,0.75682616
1421109380522.00,-2.0215461,-9.501941,0.64949936
1421109380541.00,-2.0746856,-9.5070305,0.63752425
1421109380561.00,-2.0285816,-9.53113,0.65878004
1421109380581.00,-2.0369642,-9.549392,0.7195537
1421109380608.00,-1.9705024,-9.560469,0.8081694
1421109380621.00,-2.0686982,-9.432335,0.73572004
1421109380641.00,-1.9966979,-9.510773,0.6369255
1421109380662.00,-2.041305,-9.504186,0.7393126
1421109380681.00,-2.0305276,-9.543405,0.68662214
1421109380701.00,-1.9383192,-9.563164,0.73033124
1421109380722.00,-1.9619701,-9.580527,0.6831793
1421109380790.00,-2.0535796,-9.430539,0.7393126
1421109380791.00,-2.0410056,-9.422007,0.8270302
1421109380792.00,-2.0751348,-9.61271,0.6556366
1421109380801.00,-2.054328,-9.547895,0.7478449
1421109380822.00,-2.0550764,-9.534273,0.80772036
1421109380841.00,-1.9336789,-9.571096,0.6210585
1421109380862.00,-2.0219953,-9.422755,0.70278853
1421109380882.00,-1.90913,-9.544153,0.80367875
1421109380901.00,-1.9631675,-9.467961,0.8349637
1421109380921.00,-2.0549269,-9.520802,0.85142946
1421109380942.00,-2.0921993,-9.592353,0.89903045
1421109380961.00,-2.1013303,-9.551937,0.7652087
1421109380981.00,-2.002386,-9.510324,0.8108638
1421109381001.00,-2.0486398,-9.547746,0.7104227
1421109381021.00,-1.9360739,-9.519304,0.7123686
1421109381044.00,-2.0363653,-9.49745,0.67329985
1421109381065.00,-1.9675086,-9.429042,0.8342152
1421109381084.00,-1.9553838,-9.540561,0.76101744
1421109381155.00,-1.973047,-9.484128,0.5942642
1421109381156.00,-1.9901116,-9.463171,0.70772827
1421109381158.00,-2.056723,-9.508826,0.737666
1421109381165.00,-2.0243902,-9.549541,0.7433542
1421109381195.00,-2.0624113,-9.617201,0.80487627
1421109381202.00,-1.9362236,-9.540261,0.7336244
1421109381224.00,-2.0673509,-9.582024,0.7695497
1421109381242.00,-2.0216959,-9.5666065,0.76101744
1421109381262.00,-2.0001407,-9.585766,0.680934
1421109381281.00,-1.9342777,-9.485325,0.8174501
1421109381301.00,-2.033671,-9.5230465,0.8291258
1421109381321.00,-2.0468435,-9.490115,0.8414003
1421109381341.00,-1.9763402,-9.490115,0.7310797
1421109381362.00,-1.9239491,-9.536669,0.71536237
1421109381381.00,-2.02933,-9.537117,0.77194476
1421109381444.00,-1.9116746,-9.406888,0.83541274
1421109381445.00,-1.8995498,-9.546698,0.79320055
1421109381446.00,-1.9892135,-9.552385,0.6777905
1421109381465.00,-2.004781,-9.632469,0.8066725
1421109381482.00,-2.0477417,-9.488917,0.7946974
1421109381501.00,-2.027384,-9.499695,0.77972853
1421109381521.00,-2.0357666,-9.537117,0.71446425
1421109381541.00,-2.0007393,-9.501641,0.69575316
1421109381561.00,-2.045197,-9.444909,0.8038284
1421109381582.00,-2.0420535,-9.583371,0.8003856
1421109381601.00,-1.997596,-9.570349,0.74485105
1421109381621.00,-2.0353174,-9.576486,0.7222481
1421109381642.00,-1.9666104,-9.611663,0.82358736
1421109381661.00,-1.9025437,-9.617351,0.76820254
1421109381681.00,-1.9312838,-9.568103,0.8066725
1421109381703.00,-1.9543359,-9.527987,0.6677614
1421109381797.00,-1.9748433,-9.63681,0.62285477
1421109381803.00,-1.9462527,-9.525143,0.8418494
1421109381804.00,-2.0628603,-9.576935,0.74125856
1421109381805.00,-1.9227517,-9.522298,0.82867676
1421109381806.00,-1.9329305,-9.54565,0.7800279
1421109381821.00,-1.889371,-9.529782,0.6882687
1421109381843.00,-1.9743942,-9.485025,0.7649094
1421109381865.00,-2.0236418,-9.541308,0.71700895
1421109381882.00,-1.9978954,-9.51182,0.7276369
1421109381902.00,-2.009571,-9.5737915,0.77044785
1421109381922.00,-1.9544857,-9.540859,0.7884105
1421109381941.00,-2.0534298,-9.509126,0.6212082
1421109381962.00,-1.919159,-9.443413,0.7453001
1421109381986.00,-1.9481987,-9.591754,0.7063811
1421109382007.00,-1.9392173,-9.579779,0.59411454
1421109382021.00,-1.90913,-9.626332,0.6962022
1421109382041.00,-2.0547771,-9.56945,0.6277945
1421109382061.00,-2.0779788,-9.519454,0.7243437
1421109382145.00,-2.0439994,-9.571096,0.7363188
1421109382146.00,-1.9076331,-9.485774,0.760269
1421109382147.00,-1.9946022,-9.506881,0.6385721
1421109382147.00,-2.1309686,-9.67049,0.71536237
1421109382245.00,-2.0308268,-9.476344,0.69066375
1421109382246.00,-1.9237994,-9.684261,0.68437684
1421109382246.00,-1.9543359,-9.476644,0.748743
1421109382247.00,-1.8658699,-9.451795,0.77419007
1421109382248.00,-1.9857706,-9.561966,0.757874
1421109382262.00,-2.0275338,-9.364377,0.7366182
1421109382306.00,-2.0350182,-9.390872,0.7978409
1421109382307.00,-1.924997,-9.517958,0.78212357
1421109382341.00,-2.0080743,-9.460776,0.76221496
1421109382349.00,-1.9685564,-9.594448,0.6345305
1421109382422.00,-2.047592,-9.519903,0.7402107
1421109382423.00,-1.9639161,-9.4877205,0.5809419
1421109382424.00,-1.9223026,-9.5230465,0.7195537
1421109382425.00,-1.9657123,-9.532328,0.7301816
1421109382445.00,-1.8839822,-9.653874,0.7214996
1421109382462.00,-1.9788849,-9.563612,0.6569838
1421109382481.00,-1.8880239,-9.629026,0.563578
1421109382501.00,-1.832639,-9.648486,0.66506696
1421109382522.00,-1.9673588,-9.555828,0.680934
1421109382541.00,-1.9940034,-9.474697,0.6683601
1421109382561.00,-2.036066,-9.581426,0.70144135
1421109382582.00,-1.9875668,-9.470655,0.7203021
1421109382601.00,-2.030677,-9.527238,0.6575825
1421109382621.00,-2.0838168,-9.520802,0.66401917
1421109382641.00,-2.041305,-9.581126,0.65488815
1421109382661.00,-2.0675006,-9.462722,0.79993653
1421109382683.00,-1.9767892,-9.523795,0.8267308
1421109382704.00,-2.0489392,-9.433832,0.7541318
1421109382764.00,-1.9374211,-9.542207,0.7994875
1421109382765.00,-2.0728893,-9.566906,0.73347473
1421109382765.00,-1.9516416,-9.556427,0.64440995
1421109382786.00,-1.9684067,-9.519604,0.6725514
1421109382801.00,-1.9354751,-9.571995,0.72164935
1421109382822.00,-2.0248394,-9.601034,0.7120693
1421109382841.00,-2.0368145,-9.541458,0.7324269
1421109382861.00,-1.9790345,-9.486972,0.61073
1421109382882.00,-2.0466938,-9.533226,0.69994444
1421109382901.00,-2.0607646,-9.571246,0.53813094
1421109382925.00,-1.9618204,-9.56496,0.6556366
1421109382941.00,-1.9667602,-9.481133,0.6936575
1421109382962.00,-1.9779868,-9.481732,0.6899153
1421109382984.00,-1.8953586,-9.512718,0.6933582
1421109383002.00,-1.8610798,-9.508227,0.61776537
1421109383059.00,-1.9101777,-9.546698,0.7577243
1421109383061.00,-1.9657123,-9.493857,0.739612
1421109383062.00,-1.9287392,-9.547297,0.69290906
1421109383082.00,-2.0107687,-9.599238,0.6414162
1421109383103.00,-2.049538,-9.581426,0.7415579
1421109383121.00,-2.0405567,-9.384435,0.8105644
1421109383142.00,-1.9959494,-9.514813,0.7649094
1421109383162.00,-1.9826272,-9.483679,0.84514254
1421109383182.00,-1.9453546,-9.397907,0.8250842
1421109383205.00,-1.9987935,-9.55014,0.7512877
1421109383222.00,-1.9330802,-9.56481,0.7738907
1421109383241.00,-1.9125727,-9.521101,0.74290514
1421109383262.00,-1.9203566,-9.557475,0.73721695
1421109383281.00,-1.8800904,-9.531579,0.7197034
1421109383302.00,-1.9507434,-9.566906,0.755479
1421109383323.00,-1.9592757,-9.402547,0.69829786
1421109383384.00,-2.0240908,-9.516161,0.60174865
1421109383385.00,-1.8944604,-9.501791,0.57255936
1421109383386.00,-1.8895208,-9.4877205,0.53828067
1421109383408.00,-1.857188,-9.3771,0.685724
1421109383421.00,-2.0746856,-9.403894,0.7623646
1421109383441.00,-2.0007393,-9.437574,0.7189549
1421109383463.00,-1.9402652,-9.494456,0.8042775
1421109383484.00,-1.9739451,-9.503886,0.6502478
1421109383508.00,-1.9576291,-9.513317,0.7301816
1421109383526.00,-1.9151175,-9.557475,0.7544311
1421109383549.00,-1.974993,-9.436227,0.7521858
1421109383566.00,-2.0516336,-9.5737915,0.7503896
1421109383583.00,-1.9583775,-9.464968,0.66656387
1421109383602.00,-1.9748433,-9.489217,0.6788384
1421109383622.00,-2.0350182,-9.579629,0.7541318
1421109383642.00,-2.0420535,-9.543854,0.6981482
1421109383662.00,-2.051035,-9.515412,0.6978488
1421109383729.00,-2.0989351,-9.584569,0.6780899
1421109383730.00,-1.9814296,-9.678274,0.65608567
1421109383731.00,-1.9240988,-9.522897,0.5695656
1421109383742.00,-1.9179616,-9.508826,0.7098239
1421109383762.00,-2.0652552,-9.524843,0.83661026
1421109383783.00,-1.9699036,-9.480835,0.7680528
1421109383802.00,-2.0483406,-9.505234,0.57480466
1421109383823.00,-1.926943,-9.476344,0.7695497
1421109383846.00,-2.0679498,-9.515412,0.64351183
1421109383863.00,-2.1040246,-9.523196,0.628992
1421109383882.00,-2.066902,-9.453591,0.6662645
1421109383902.00,-2.051035,-9.574689,0.75428146
1421109383925.00,-1.8401234,-9.624086,0.6683601
1421109383944.00,-2.0181034,-9.549541,0.755479
1421109383963.00,-1.9719992,-9.627679,0.7640112
1421109383986.00,-1.9854712,-9.542806,0.7640112
1421109384062.00,-1.9598744,-9.5616665,0.6465056
1421109384063.00,-2.0871098,-9.558224,0.8321196
1421109384064.00,-1.9862196,-9.553583,0.71536237
1421109384065.00,-1.9050883,-9.508227,0.7782317
1421109384082.00,-1.9383192,-9.479338,0.8083191
1421109384102.00,-1.9278411,-9.420061,0.7924521
1421109384122.00,-1.9693048,-9.415421,0.75652677
1421109384142.00,-1.8658699,-9.441017,0.7247928
1421109384162.00,-1.906735,-9.551488,0.7728429
1421109384183.00,-1.8570383,-9.467961,0.68781966
1421109384203.00,-1.900897,-9.369765,0.6325845
1421109384222.00,-1.997596,-9.413624,0.73976165
1421109384244.00,-1.9049387,-9.45898,0.7322772
1421109384262.00,-1.9266435,-9.359886,0.76161623
1421109384282.00,-2.0020866,-9.312435,0.6716533
1421109384302.00,-1.972598,-9.443113,0.65653473
1421109384373.00,-1.9041902,-9.538015,0.6981482
1421109384373.00,-1.9152672,-9.496252,0.76790315
1421109384374.00,-2.036515,-9.41078,0.8193961
1421109384382.00,-1.9603235,-9.498498,0.529449
1421109384402.00,-1.8944604,-9.507329,0.5879773
1421109384422.00,-1.888922,-9.570797,0.7620653
1421109384442.00,-2.0107687,-9.629625,0.8045769
1421109384462.00,-1.8729053,-9.589658,0.7247928
1421109384482.00,-1.9336789,-9.591754,0.6110294
1421109384502.00,-1.9166144,-9.44431,0.7475455
1421109384522.00,-1.9553838,-9.426348,0.6734496
1421109384542.00,-1.9705024,-9.539363,0.7644603
1421109384562.00,-2.0454965,-9.490265,0.64036834
1421109384582.00,-1.9764899,-9.46871,0.53962785
1421109384602.00,-1.9651135,-9.610615,0.6966513
1421109384625.00,-1.9977456,-9.589359,0.70623136
1421109384645.00,-1.8803897,-9.51676,0.76116717
1421109384713.00,-2.0814216,-9.51676,0.5875282
1421109384714.00,-1.9085312,-9.578281,0.6620732
1421109384715.00,-1.9272423,-9.585766,0.7259903
1421109384722.00,-1.9353255,-9.512868,0.74006104
1421109384752.00,-2.049987,-9.460627,0.6527925
1421109384762.00,-1.8636246,-9.441766,0.73332506
1421109384782.00,-1.8176701,-9.538914,0.7605684
1421109384802.00,-1.9576291,-9.551787,0.8159532
1421109384822.00,-2.0498374,-9.568552,0.64470935
1421109384844.00,-1.9332298,-9.512419,0.7041357
1421109384865.00,-1.888922,-9.618698,0.74260575
1421109384882.00,-1.9693048,-9.479338,0.7114705
1421109384905.00,-2.154919,-9.579479,0.6315367
1421109384923.00,-1.9205062,-9.666598,0.75847274
1421109384942.00,-1.9917581,-9.615853,0.7120693
1421109384962.00,-1.9543359,-9.523795,0.78975767
1421109385028.00,-1.9943029,-9.629176,0.77014846
1421109385029.00,-1.9685564,-9.347312,0.69754946
1421109385032.00,-2.0140617,-9.554631,0.6933582
