time_milisec,ax,ay,az
1421109976243.00,-0.80652285,3.9308257,9.520951
1421109976267.00,-0.84888476,4.0724316,9.339229
1421109976276.00,-0.8390053,4.218378,9.250913
1421109976296.00,-0.84484315,4.1549096,9.231603
1421109976318.00,-0.7424561,4.1944275,9.343121
1421109976340.00,-0.7008426,3.9398072,9.255853
1421109976357.00,-0.7590715,4.0318656,9.246122
1421109976376.00,-0.65653473,3.928281,9.112301
1421109976397.00,-0.55160296,4.0700364,9.134006
1421109976416.00,-0.82897615,4.0351586,8.920849
1421109976437.00,-0.8744815,3.971092,8.930429
1421109976457.00,-0.67868865,3.9862106,9.042247
1421109976479.00,-0.55399793,4.177064,8.910071
1421109976496.00,-0.65997756,4.199218,8.90588
1421109976516.00,-0.8186476,4.107758,9.117241
1421109976536.00,-0.7240443,4.1698785,9.221274
1421109976558.00,-0.71820647,3.960614,9.384435
1421109976577.00,-0.53423905,4.1335044,9.3872795
1421109976596.00,-0.8140073,4.1074586,8.940159
1421109976616.00,-0.8000862,4.1611967,9.003926
1421109976636.00,-0.7887099,4.107159,9.0832615
1421109976656.00,-0.71790713,4.106261,9.164093
1421109976676.00,-0.60040146,4.1665854,8.990455
1421109976697.00,-0.6572832,4.179758,8.850346
1421109976716.00,-0.6584807,4.261488,9.085806
1421109976736.00,-0.6391708,4.1469765,9.180409
1421109976756.00,-0.6110294,4.002377,9.038055
1421109976776.00,-0.66596514,3.7799397,9.074729
1421109976798.00,-0.8108638,4.1353006,9.062155
1421109976816.00,-0.61552,4.2908273,9.091793
1421109976836.00,-0.53813094,4.1483235,8.900492
1421109976857.00,-0.5893245,4.206852,8.918304
1421109976876.00,-0.7402107,4.16928,9.0647
1421109976898.00,-0.6116281,4.0031257,9.198372
1421109976918.00,-0.5706134,4.147425,9.073831
1421109976938.00,-0.81191164,4.1891885,8.960965
1421109976958.00,-0.8547226,4.117787,9.031918
1421109976978.00,-0.8384065,4.045038,9.267827
1421109976999.00,-0.8402028,4.0122566,9.237291
1421109977019.00,-0.85023195,4.1185355,9.197024
1421109977039.00,-0.88735473,4.214037,9.037007
1421109977059.00,-0.85023195,4.334237,8.982671
1421109977078.00,-0.8107141,4.3652225,8.972791
1421109977098.00,-0.83316743,4.2176294,9.216784
1421109977118.00,-0.8797206,4.19338,9.319021
1421109977141.00,-0.7393126,4.182303,9.264235
1421109977158.00,-0.6879694,4.194278,8.964558
1421109977179.00,-0.49352372,4.2391844,8.7517
1421109977198.00,-0.5319937,4.214486,8.929531
1421109977218.00,-0.49187714,4.2343946,9.127419
1421109977238.00,-0.524659,4.0564146,9.151071
1421109977258.00,-0.6271957,4.14518,9.122929
1421109977278.00,-0.40909928,4.1981697,9.060658
1421109977316.00,-0.53379,4.2421784,9.0165
1421109977321.00,-0.60144925,4.2993593,9.071286
1421109977337.00,-0.7089258,4.2881327,9.01186
1421109977357.00,-0.48738647,4.27511,8.901689
1421109977377.00,-0.728535,4.4325824,8.73269
1421109977396.00,-0.6215076,4.3737545,9.082663
1421109977416.00,-0.5834866,4.1251216,9.1849
1421109977438.00,-0.43858796,4.0604563,8.984167
1421109977458.00,-0.506846,4.141737,8.909622
1421109977480.00,-0.56657183,4.116889,8.918005
1421109977499.00,-0.5484595,4.1219783,8.921747
1421109977519.00,-0.68811905,4.124972,9.081914
1421109977539.00,-0.69485503,4.081413,9.187295
1421109977559.00,-0.53079623,4.074527,9.176667
1421109977579.00,-0.6095325,4.1776624,9.22786
1421109977599.00,-0.65488815,4.2152343,9.297167
1421109977620.00,-0.66791105,4.222569,9.192983
1421109977638.00,-0.6156697,4.2739124,9.432335
1421109977658.00,-0.5195696,4.215833,9.376053
1421109977678.00,-0.7009923,4.148623,9.136251
1421109977698.00,-0.73721695,4.093238,9.304052
1421109977718.00,-0.72239774,4.023034,9.202114
1421109977739.00,-0.6981482,4.114494,9.190139
1421109977758.00,-0.6569838,4.0894957,9.143736
1421109977780.00,-0.7113208,4.10192,9.012159
1421109977799.00,-0.66686326,4.2141867,8.897347
1421109977819.00,-0.5650749,4.127816,8.864716
1421109977838.00,-0.51657575,4.1302114,8.957373
1421109977858.00,-0.60174865,4.2291555,9.001382
1421109977878.00,-0.65803164,4.0993752,9.0165
1421109977899.00,-0.6839278,4.1670346,8.965007
1421109977918.00,-0.71536237,4.219126,9.034463
1421109977939.00,-0.6800358,4.299509,8.968749
1421109977959.00,-0.7933502,4.3276505,9.042397
1421109977980.00,-0.7262897,4.093088,9.203012
1421109977998.00,-0.70533323,4.2222695,9.228909
1421109978018.00,-0.79020673,4.262686,9.061108
1421109978038.00,-0.6581813,4.1356,8.948392
1421109978059.00,-0.57285875,4.1829014,9.037906
1421109978082.00,-0.6451584,4.179309,9.047485
1421109978096.00,-0.7247928,4.157604,9.219627
1421109978126.00,-0.5869295,4.036955,8.959169
1421109978146.00,-0.57959473,4.1064105,8.8774395
1421109978157.00,-0.62285477,4.2704697,8.956625
1421109978177.00,-0.7339238,4.2207727,9.070088
1421109978196.00,-0.65743285,4.2647815,9.005573
1421109978216.00,-0.7246431,4.2221203,8.868308
1421109978239.00,-0.84963316,4.2983117,8.964109
1421109978257.00,-0.7149133,4.262087,9.0269785
1421109978277.00,-0.7887099,4.115392,9.099129
1421109978298.00,-0.7243437,4.1478744,8.945698
1421109978317.00,-0.64860123,4.19802,9.08386
1421109978360.00,-0.6601273,4.359085,9.203312
1421109978364.00,-0.6703061,4.208199,9.147478
1421109978381.00,-0.66431856,4.171226,9.104966
1421109978446.00,-0.6806346,4.1146436,8.931776
1421109978455.00,-0.63887143,4.1507187,9.010962
1421109978458.00,-0.6680608,4.181255,9.129066
1421109978459.00,-0.66431856,4.1159906,9.029673
1421109978501.00,-0.6186635,4.1665854,8.9690485
1421109978502.00,-0.58992326,4.239334,9.012609
1421109978536.00,-0.5628296,4.148024,9.140891
1421109978537.00,-0.54157376,4.147425,9.204209
1421109978583.00,-0.6306386,4.3276505,9.154813
1421109978585.00,-0.6987469,4.120332,9.159602
1421109978623.00,-0.6953041,4.1772137,8.954978
1421109978624.00,-0.56208116,4.104315,9.07413
1421109978637.00,-0.54501665,4.162245,9.055868
1421109978666.00,-0.75817335,4.20296,9.080268
1421109978675.00,-0.726589,4.1585026,9.038654
1421109978699.00,-0.7430548,4.147425,9.158705
1421109978716.00,-0.62315416,4.1320076,9.148974
1421109978736.00,-0.6249504,4.167484,9.023536
1421109978756.00,-0.5947133,4.2920246,8.96396
1421109978782.00,-0.83825684,4.314478,9.152567
1421109978799.00,-0.8758287,4.3658214,9.24253
1421109978816.00,-0.6803352,4.1767645,9.116043
1421109978858.00,-0.8478369,4.1926312,8.966205
1421109978859.00,-0.98929274,4.4364743,9.029523
1421109978876.00,-1.009351,4.541406,9.03132
1421109978896.00,-0.9650432,4.5973897,9.113948
1421109978934.00,-0.9559122,4.5297303,9.010512
1421109978936.00,-1.0776091,4.4738965,8.971744
1421109978956.00,-1.1105406,4.3104362,9.117091
1421109978979.00,-1.3103751,4.3792934,9.138347
1421109978996.00,-1.2918136,4.4580293,9.032666
1421109979018.00,-1.3751903,4.5411067,7.904612
1421109979040.00,-1.4513818,4.827611,8.689879
1421109979063.00,-1.2307407,4.6970825,8.7439165
1421109979078.00,-1.3768369,4.722829,8.60815
1421109979113.00,-1.3470488,4.893474,9.048683
1421109979117.00,-1.1573932,4.753216,9.110206
1421109979137.00,-1.0714718,4.691544,8.947194
1421109979157.00,-1.0823991,4.703968,8.732242
1421109979179.00,-1.1356883,4.809349,9.118737
1421109979196.00,-1.0195298,4.6485834,9.004825
1421109979216.00,-0.843945,4.4743457,8.906928
1421109979238.00,-0.8083191,4.449497,8.634794
1421109979257.00,-0.8652008,4.3180704,8.739876
1421109979278.00,-0.893492,4.625681,9.022338
1421109979297.00,-1.1789484,4.6816645,8.950936
1421109979317.00,-1.2005036,4.6324167,8.832233
1421109979341.00,-1.0835967,4.508774,8.923244
1421109979360.00,-0.9541159,4.5104203,8.949589
1421109979376.00,-0.9554631,4.5858636,9.042247
1421109979397.00,-1.1082953,4.574637,9.075478
1421109979417.00,-1.0901829,4.494254,9.114845
1421109979436.00,-0.8279283,4.280349,9.192235
1421109979457.00,-0.93540484,4.299509,9.081764
1421109979480.00,-0.7521858,4.2719665,9.001532
1421109979499.00,-0.58558226,4.407285,8.906179
1421109979520.00,-0.69979477,4.2766066,8.904982
1421109979538.00,-0.5454657,4.31358,8.725804
1421109979559.00,-0.6391708,4.2155337,8.746013
1421109979578.00,-0.5192702,4.324058,9.015153
1421109979600.00,-0.7447014,4.362229,9.032067
1421109979620.00,-0.6104306,4.3087897,8.987909
1421109979640.00,-0.6116281,4.230802,8.875044
1421109979659.00,-0.74769515,4.377048,8.707692
1421109979680.00,-0.71850586,4.3813887,8.907377
1421109979700.00,-0.52480865,4.1963735,8.934022
1421109979718.00,-0.6864725,4.3685155,8.920849
1421109979736.00,-0.8288264,4.3960586,8.856183
1421109979756.00,-0.8788225,4.518204,8.646171
1421109979777.00,-0.886756,4.5586205,8.841663
1421109979799.00,-0.8244855,4.5741878,8.971893
1421109979817.00,-0.696801,4.42899,8.929232
1421109979837.00,-0.9650432,4.4580293,8.731792
1421109979857.00,-1.0282118,4.655469,8.851094
1421109979877.00,-0.8884026,4.619843,8.884475
1421109979902.00,-0.97746736,4.4999423,9.048384
1421109979916.00,-0.9316626,4.6623545,8.984616
1421109979936.00,-0.91893905,4.692292,8.940159
1421109979957.00,-0.95321774,4.535119,8.76158
1421109979977.00,-0.87088895,4.455934,9.068143
1421109979996.00,-0.9885443,4.4387197,9.156159
1421109980017.00,-0.893492,4.5430527,9.136102
1421109980038.00,-0.814606,4.527036,9.092392
1421109980061.00,-0.7271878,4.592001,8.844358
1421109980083.00,-0.5812413,4.575236,8.737181
1421109980099.00,-0.7063811,4.547992,8.808732
1421109980121.00,-0.64261365,4.588708,8.989706
1421109980150.00,-0.73407346,4.6743298,8.147408
1421109980165.00,-1.4329702,4.771328,9.273665
1421109980178.00,-1.0394385,4.248615,8.920549
1421109980214.00,-0.63902116,4.348757,8.873847
1421109980248.00,-0.9511221,4.464466,8.95393
1421109980249.00,-0.9267229,4.572691,9.004076
1421109980302.00,-0.9449849,4.374653,8.842262
1421109980303.00,-0.68123335,4.3075924,9.111253
1421109980306.00,-0.7200028,4.297563,9.072484
1421109980341.00,-0.73033124,4.4411144,8.77146
1421109980342.00,-0.80876815,4.4006987,8.833431
1421109980374.00,-0.9020242,4.5081754,8.906329
1421109980396.00,-0.79679304,4.3282495,9.204808
1421109980397.00,-0.78212357,4.490512,8.906179
1421109980428.00,-0.71760774,4.450994,8.749306
1421109980437.00,-0.8759784,4.562213,8.783884
1421109980464.00,-0.8002359,4.3161244,8.964707
1421109980498.00,-0.88705534,4.468358,8.98312
1421109980499.00,-0.7604187,4.376,8.888816
1421109980530.00,-0.6966513,4.5291314,8.808582
1421109980536.00,-0.7735913,4.4966493,8.832982
1421109980557.00,-0.78945833,4.2869353,8.880283
1421109980582.00,-0.87657714,4.405489,8.9762335
1421109980608.00,-0.7337741,4.546196,8.966354
1421109980618.00,-0.7370673,4.553381,8.764275
1421109980641.00,-0.8649014,4.5463457,8.953182
1421109980656.00,-0.73751634,4.423152,8.868757
1421109980676.00,-0.8893007,4.4089317,8.7527485
1421109980697.00,-0.9605525,4.3595343,8.8722
1421109980718.00,-0.941542,4.208199,8.919353
1421109980737.00,-1.0599458,4.370761,8.711135
1421109980757.00,-1.0654843,4.292324,8.92519
1421109980777.00,-1.0603949,4.4863205,8.990455
1421109980797.00,-1.0674303,4.3478584,9.086255
1421109980819.00,-1.1808944,4.3930645,9.002878
1421109980839.00,-1.2440629,4.530329,8.873248
1421109980858.00,-1.2313395,4.4912605,8.749755
1421109980879.00,-1.1787987,4.5782294,8.959768
1421109980899.00,-1.022823,4.4824286,8.913814
1421109980919.00,-1.1976595,4.4488983,8.9320755
1421109980938.00,-1.3738431,4.4021955,9.12203
1421109980959.00,-1.3473482,4.524641,9.093889
1421109980977.00,-1.2991484,4.723278,8.7157755
1421109980997.00,-1.4606625,4.6869035,8.434959
1421109981034.00,-1.52922,4.7133985,8.895252
1421109981048.00,-1.3961467,4.6701384,8.680449
1421109981069.00,-1.3858181,4.7502217,8.791219
1421109981082.00,-1.3973442,4.547992,8.916059
1421109981110.00,-1.2186159,4.5426035,8.796457
1421109981117.00,-1.1367362,4.4747944,9.082363
1421109981142.00,-0.9687854,4.3257046,9.100475
1421109981156.00,-0.8147557,4.4141707,8.785979
1421109981176.00,-0.8270302,4.4584785,8.814271
1421109981197.00,-0.85427356,4.415368,8.938662
1421109981217.00,-0.9102571,4.2526565,8.89166
1421109981239.00,-0.7988887,4.230952,8.969647
1421109981259.00,-0.8637039,4.3691144,8.913664
1421109981279.00,-0.9364526,4.515061,8.835526
1421109981298.00,-1.0511142,4.418362,8.882528
1421109981317.00,-0.9288185,4.556824,8.863967
1421109981337.00,-0.82493454,4.464466,8.986413
1421109981361.00,-0.9145981,4.485722,9.099427
1421109981378.00,-0.9304651,4.4970984,8.844956
1421109981397.00,-0.9460327,4.5705953,8.796607
1421109981418.00,-1.1340418,4.555028,8.831036
1421109981437.00,-1.0910811,4.4331813,8.975336
1421109981460.00,-1.0572515,4.623735,8.956326
1421109981478.00,-1.0036628,4.4441085,8.869506
1421109981501.00,-1.0264156,4.576583,8.738828
1421109981518.00,-1.1665242,4.458628,8.738229
1421109981537.00,-0.9244775,4.3821373,8.780441
1421109981557.00,-0.9039702,4.442462,8.994047
1421109981579.00,-0.91549623,4.576433,8.911718
1421109981598.00,-1.0574012,4.5753856,8.778944
1421109981617.00,-0.99483126,4.614005,8.964109
1421109981638.00,-0.92118436,4.4059377,8.98761
1421109981657.00,-0.8931926,4.432133,9.099727
1421109981678.00,-0.9610016,4.2686734,9.125473
1421109981697.00,-0.9057664,4.5529323,9.014255
1421109981717.00,-0.8623567,4.5372148,8.885373
1421109981737.00,-0.98959213,4.5388613,8.853489
1421109981760.00,-0.8532257,4.41462,8.984766
1421109981779.00,-0.7655081,4.4723997,9.001681
1421109981797.00,-0.8500822,4.517456,8.952284
1421109981817.00,-0.72554123,4.350703,8.750354
1421109981837.00,-0.66132474,4.413572,8.826844
1421109981859.00,-0.7882608,4.398603,9.086105
1421109981879.00,-0.74230635,4.2770557,9.108109
1421109981899.00,-0.6882687,4.208798,8.970246
1421109981919.00,-0.8292755,4.392017,9.164392
1421109981937.00,-0.7493417,4.4628196,8.913514
1421109981957.00,-0.85936296,4.300557,8.923842
1421109981981.00,-0.92657316,4.4382706,9.049132
1421109981997.00,-0.97402453,4.500541,9.04554
1421109982018.00,-0.71057236,4.4059377,9.163794
1421109982037.00,-0.76910067,4.4330316,9.175469
1421109982058.00,-0.9193881,4.398603,9.229507
1421109982079.00,-0.7960446,4.282594,9.003777
1421109982098.00,-0.73721695,4.237388,9.075627
1421109982117.00,-0.8161029,4.2830434,9.057365
1421109982137.00,-0.70802766,4.267326,8.878487
1421109982157.00,-0.59261763,4.2770557,8.919203
1421109982177.00,-0.812211,4.359684,8.910221
1421109982199.00,-0.7512877,4.4518924,8.907677
1421109982217.00,-0.6234535,4.233347,9.00198
1421109982237.00,-0.65773225,4.208648,9.068892
1421109982257.00,-0.70967424,4.206852,8.990155
1421109982278.00,-0.6984476,4.2435255,9.065
1421109982297.00,-0.7047345,4.306694,9.031619
1421109982318.00,-0.8288264,4.31373,9.077573
1421109982337.00,-0.78092605,4.3734555,9.148525
1421109982358.00,-0.88885164,4.3387275,9.236992
1421109982378.00,-0.76356214,4.3063946,9.143886
1421109982399.00,-0.7735913,4.3650727,9.04524
1421109982420.00,-0.70009416,4.272266,8.994347
1421109982441.00,-0.7662566,4.328549,8.887169
1421109982460.00,-0.7050339,4.391867,8.901389
1421109982481.00,-0.8184979,4.569248,8.81906
1421109982497.00,-0.85412383,4.296216,8.8722
1421109982521.00,-0.87148774,4.3852806,9.025781
1421109982538.00,-0.7882608,4.328399,9.026829
1421109982557.00,-0.710722,4.2828937,8.996741
1421109982578.00,-0.767005,4.3056464,9.083112
1421109982597.00,-0.7725435,4.281397,9.02099
1421109982617.00,-0.6391708,4.362528,9.0832615
1421109982637.00,-0.767005,4.334387,8.8757925
1421109982660.00,-0.7912546,4.247717,9.160051
1421109982680.00,-0.7842192,4.3122325,9.128767
1421109982700.00,-0.75592804,4.457431,9.156309
1421109982721.00,-0.8375084,4.422553,9.072035
1421109982739.00,-0.7580237,4.350703,8.994645
1421109982760.00,-0.85532135,4.3569894,9.022488
1421109982780.00,-0.8262817,4.4170146,8.8862705
1421109982799.00,-0.78377014,4.3400745,9.045839
1421109982819.00,-0.8472382,4.253555,8.904084
1421109982840.00,-0.89932984,4.3349853,9.063353
1421109982861.00,-0.8174501,4.2287064,9.113798
1421109982877.00,-0.8053253,4.1718245,9.033864
1421109982898.00,-0.6411168,4.2390347,8.930878
1421109982918.00,-0.68946624,4.344116,8.960517
1421109982937.00,-0.66027695,4.310137,8.904682
1421109982958.00,-0.68437684,4.462071,8.93941
1421109982977.00,-0.73347473,4.2674756,9.1126
1421109982999.00,-0.7975415,4.3430686,9.07398
1421109983017.00,-0.87268525,4.2667274,9.010063
1421109983037.00,-0.7933502,4.4147696,9.055419
1421109983058.00,-0.6092331,4.316274,9.032067
1421109983091.00,-0.77269316,4.217779,9.126671
1421109983097.00,-0.9122031,4.2782536,9.018446
1421109983117.00,-0.8475375,4.3102865,9.080418
1421109983138.00,-0.9042696,4.301006,9.013805
1421109983157.00,-0.8140073,4.4032435,9.077423
1421109983177.00,-0.7580237,4.330495,9.012609
1421109983197.00,-0.76101744,4.3051972,9.030272
1421109983216.00,-0.81101346,4.3218126,8.976533
1421109983239.00,-0.84169966,4.296216,9.100625
1421109983259.00,-0.73063064,4.367917,9.19942
1421109983277.00,-0.88960004,4.407285,9.1185875
1421109983298.00,-0.97177917,4.4105783,8.957822
1421109983317.00,-0.79424834,4.4406657,8.851693
1421109983337.00,-0.8457413,4.252806,8.9988365
1421109983358.00,-0.925226,4.249663,9.116941
1421109983380.00,-0.8241861,4.29906,9.092991
1421109983398.00,-0.7381151,4.516857,9.0197935
1421109983417.00,-0.6819818,4.4448566,9.0093155
1421109983438.00,-0.7259903,4.3926153,9.114696
1421109983460.00,-0.8292755,4.367318,9.068892
1421109983479.00,-0.9340576,4.3411226,9.075478
1421109983498.00,-0.69979477,4.386778,9.107061
1421109983519.00,-0.6902147,4.292923,8.994197
1421109983537.00,-0.80083466,4.3834844,9.074729
1421109983557.00,-0.8508307,4.436025,9.063652
1421109983617.00,-0.54097503,4.3858795,9.04569
1421109983618.00,-0.8710387,4.233496,9.104068
1421109983618.00,-0.7881111,4.3069935,8.959768
1421109983726.00,-0.79679304,4.384832,8.957972
1421109983727.00,-0.6439609,4.252357,9.006321
1421109983727.00,-0.8231383,4.4351273,9.073531
1421109983728.00,-0.8270302,4.313879,8.912616
1421109983740.00,-0.9523196,4.2861867,8.88657
1421109983741.00,-0.79769117,4.252956,8.970546
1421109983824.00,-0.8931926,4.3921666,8.826395
1421109983825.00,-0.7629634,4.4427614,8.982072
1421109983826.00,-0.79020673,4.3650727,8.921897
1421109983827.00,-0.81924635,4.336183,8.877589
1421109983946.00,-0.8587642,4.399202,8.893307
1421109983946.00,-0.9397458,4.355343,8.931626
1421109983947.00,-0.73033124,4.29442,8.9927
1421109983947.00,-0.60234743,4.2791514,8.941207
1421109983948.00,-0.8833131,4.438121,8.863369
1421109983949.00,-1.0340496,4.3921666,8.8001995
1421109983982.00,-0.9931847,4.2571473,8.9795265
1421109983984.00,-0.8168514,4.2201743,9.016051
1421109984040.00,-0.7445517,4.269721,9.2566
1421109984041.00,-0.8029303,4.2448726,9.315578
1421109984042.00,-0.9792636,4.294719,9.052725
1421109984438.00,-0.73586977,4.2411304,9.106164
1421109984444.00,-0.7012917,4.3093886,9.427695
1421109984445.00,-0.7782317,4.4253974,9.652378
1421109984446.00,-0.79200304,4.188889,9.235195
1421109984447.00,-0.69246,4.2822948,8.5204315
1421109984448.00,0.21974304,3.9612126,8.028705
1421109984449.00,-0.0703537,3.9863603,8.223748
1421109984450.00,0.0411644,4.365971,7.2121525
1421109984451.00,-0.74380326,3.9266346,4.6533732
1421109984452.00,-0.6171666,3.45751,6.337671
1421109984454.00,-0.69216067,3.1051428,6.801107
1421109984455.00,-0.5005591,4.7297144,7.366631
1421109984458.00,-0.25117767,4.370162,7.8053684
1421109984459.00,-0.6753955,4.1290135,11.058404
1421109984480.00,-0.41882905,3.7012033,12.072395
1421109984535.00,-0.36568955,3.6212695,11.363769
1421109984535.00,-0.77972853,4.542753,9.133107
1421109984592.00,-0.72928345,4.79917,8.354876
1421109984593.00,-0.20357665,3.8366716,9.880354
1421109984594.00,0.105979614,3.3076715,10.696756
1421109984646.00,-0.15373032,3.618575,9.942624
1421109984647.00,-0.11136841,3.496579,7.146589
1421109984648.00,-0.26300308,3.5001714,7.57395
1421109984698.00,-0.3240761,2.9753628,9.992471
1421109984699.00,0.02799179,2.5119264,10.576107
1421109984699.00,-0.58273816,3.4953814,10.101893
1421109984721.00,-1.1906241,4.156407,9.507628
1421109984842.00,-1.3578264,3.683989,10.525212
1421109984842.00,-0.91010743,3.3501832,10.72355
1421109984843.00,-0.9595047,4.001778,10.640024
1421109984843.00,-0.864602,3.820206,10.517878
1421109984844.00,-0.47750703,3.899541,9.327553
1421109984845.00,-0.102237396,3.982618,8.811726
1421109984893.00,-0.07244934,3.779191,8.966205
1421109984893.00,-0.21046235,4.1520658,9.393716
1421109984941.00,-0.15986755,3.4410443,9.262888
1421109984942.00,0.28859985,3.6396813,9.047635
1421109984943.00,0.56881714,3.4808614,9.471853
1421109984998.00,0.6512956,3.44793,9.888138
1421109984999.00,0.5942642,3.5000217,9.831705
1421109984999.00,0.83286804,3.6425254,9.029673
1421109985056.00,1.3039384,3.376828,9.197773
1421109985057.00,1.0500664,3.3944912,9.141041
1421109985057.00,0.3915857,3.6591408,8.574619
1421109985122.00,0.9913884,3.663332,8.572074
1421109985123.00,1.6907341,3.6284547,9.758507
1421109985123.00,1.5328125,2.9277618,7.052135
1421109985154.00,1.7518071,2.7306216,7.833061
1421109985157.00,1.4202466,2.3921754,7.693551
1421109985179.00,1.2106824,2.5234525,6.11673
1421109985210.00,1.4335688,3.5530114,7.3467226
1421109985217.00,1.9366727,3.459456,9.066196
1421109985237.00,1.8378781,2.5761428,8.057445
1421109985257.00,0.6514453,2.6855652,7.543563
1421109985278.00,0.7206015,1.4013858,8.676108
1421109985301.00,0.95980406,0.993484,9.358239
1421109985332.00,-0.6475534,2.6244924,10.418634
1421109985340.00,-0.008681946,3.958069,11.04119
1421109985414.00,1.0099498,3.6841388,12.205468
1421109985416.00,1.5437398,2.5906627,10.913955
1421109985418.00,0.6893166,2.1414468,9.132809
1421109985419.00,-0.5863307,3.1150222,9.960287
1421109985451.00,-1.2615765,4.3113346,9.792336
1421109985461.00,-0.25776398,3.5353482,9.857601
1421109985481.00,1.4196478,2.8313622,9.623637
1421109985498.00,0.92582476,3.290158,9.021589
1421109985519.00,0.6342311,2.366429,7.2331085
1421109985550.00,-0.33530274,0.96145064,7.529193
1421109985558.00,-7.265591,4.4396176,13.280982
1421109985581.00,-2.1420455,3.2552805,10.235715
1421109985600.00,-0.8107141,1.2521461,7.4181237
1421109985622.00,-2.3287075,2.1631517,9.125473
1421109985638.00,-2.1851559,1.1105406,8.274643
1421109985658.00,-0.55295014,-0.34578094,7.4842863
1421109985774.00,-0.7445517,2.2832022,9.035511
1421109985777.00,-1.5060182,4.60697,8.486003
1421109985778.00,-1.052162,4.6958847,0.37811372
1421109985779.00,0.07229965,0.16450791,3.1087353
1421109985782.00,2.6259892,-0.7813751,10.332863
1421109985783.00,6.9566336,-1.472937,10.28167
1421109985798.00,5.4410353,-2.3498135,11.611504
1421109985819.00,2.5969496,-1.7488133,9.291029
1421109985838.00,1.9589763,-2.3068528,7.2678366
1421109985857.00,3.7497025,-2.3424788,7.3851924
1421109985877.00,4.884493,-2.5363257,8.777896
1421109985898.00,3.7366796,-2.6842182,9.629176
1421109985918.00,2.8009753,-2.652634,8.791219
1421109985994.00,3.5778599,-2.571802,7.1650004
1421109985996.00,5.023703,-2.873275,6.9231033
1421109985997.00,6.9334316,-3.690725,9.268426
1421109985998.00,9.060209,-3.4675393,10.127191
1421109986021.00,10.742411,-3.012785,8.303982
1421109986047.00,11.672876,-2.9129424,6.3599744
1421109986059.00,12.842244,-2.531386,6.6524663
1421109986231.00,13.373939,-1.8935623,6.0406885
1421109986242.00,12.365187,-1.591191,4.958888
1421109986244.00,11.500285,-1.6325052,3.667224
1421109986245.00,11.133099,-1.8151255,3.1024485
1421109986246.00,11.967014,-1.7115408,2.7482848
1421109986289.00,13.308076,0.5962102,1.7434245
1421109986290.00,12.708273,-1.5528708,1.9699036
1421109986291.00,12.154574,-3.3181498,0.90696394
1421109986308.00,10.193502,-2.5517435,1.2340338
1421109986311.00,10.494377,-3.648962,0.44921586
1421109986313.00,9.274564,-2.7881021,2.9581485
1421109986320.00,6.4220953,-3.6827917,1.3168117
1421109986324.00,5.47247,-3.6083963,2.5095315
1421109986341.00,4.504882,-3.1046937,2.9879365
1421109986371.00,3.9818697,-2.8020232,1.7149837
1421109986386.00,5.1885104,-2.251468,1.9248472
1421109986400.00,6.627468,-1.5012282,1.303639
1421109986472.00,7.321874,-1.6323555,-0.8370593
1421109986473.00,7.502548,-2.0992346,-2.3221211
1421109986475.00,6.82371,-1.7789007,-2.81804
1421109986493.00,8.487201,-3.821553,-0.8150551
1421109986504.00,9.275461,-2.3252647,3.8272412
1421109986534.00,3.8920565,-4.465813,3.7041972
1421109986549.00,4.718787,-4.9969087,-1.1005114
1421109986559.00,2.48139,-3.7068915,-6.970854
1421109986584.00,6.0758653,-9.916129,-3.031945
1421109986603.00,7.2375994,-15.0221615,3.1316378
1421109986619.00,5.596562,-17.829872,0.72015244
1421109986639.00,8.456664,-17.321829,-1.549428
1421109986661.00,7.234905,-9.807006,-1.84177
1421109986758.00,4.54919,-3.004103,-0.9779164
1421109986759.00,5.165159,-5.996081,-1.4718891
1421109986760.00,4.0059695,-6.686296,1.6082556
1421109986761.00,4.2809477,-7.156019,1.0894345
1421109986762.00,4.9653244,-7.313791,-0.5803432
1421109986782.00,3.7407212,-6.840625,-1.5100598
1421109986798.00,2.113455,-6.7469196,-1.1650273
1421109986821.00,1.3942008,-6.4180536,-0.7526349
1421109986838.00,0.35072067,-6.053412,-0.6918613
1421109986858.00,-0.6420149,-6.859186,-1.1585907
1421109986878.00,-1.4145584,-9.671538,-2.8966265
1421109986899.00,-0.09415421,-9.459279,-0.12828323
1421109986918.00,3.1428645,0.71311706,0.5309459
1421109986938.00,0.23141876,-0.3900888,5.312303
1421109986958.00,-2.1465364,-2.8946805,2.219734
1421109986978.00,-2.389032,-2.629432,0.18142273
1421109987040.00,-2.3469694,-2.502047,-1.1211685
1421109987041.00,-2.2324576,-2.9313543,-0.94303894
1421109987042.00,-3.2666569,-9.052276,-0.23141876
1421109987061.00,-17.06197,-18.14901,7.7538757
1421109987078.00,-2.41403,-10.965747,1.3141173
1421109987098.00,0.13127701,-2.1230352,-0.49981064
1421109987119.00,0.07065307,-1.9013461,-1.6515156
1421109987141.00,-2.9238698,-12.693304,-2.4511528
1421109987158.00,-2.0646565,-11.701467,-0.38065842
1421109987179.00,-1.9814296,-9.021739,0.91325086
1421109987199.00,-3.1097832,-8.967253,1.0819501
1421109987220.00,-3.4587076,-9.139994,1.0196795
1421109987241.00,-3.6527042,-9.017098,1.0689272
1421109987259.00,-3.7055442,-8.728649,0.8225395
1421109987279.00,-3.7220101,-9.232202,0.2829117
1421109987304.00,-3.5082545,-9.711056,0.21061203
1421109987357.00,-3.2154634,-9.360785,0.8361612
1421109987358.00,-3.3400044,-9.392668,0.73332506
1421109987360.00,-3.4355059,-9.330697,0.74829394
1421109987378.00,-3.3337176,-9.25241,0.5492079
1421109987398.00,-3.3874557,-8.860374,0.102836154
1421109987418.00,-3.5860927,-9.16589,-0.14280304
1421109987438.00,-3.9252872,-9.477541,-0.13546829
1421109987459.00,-4.0597076,-9.599388,0.07125183
1421109987479.00,-3.795657,-9.558523,-0.15058686
1421109987498.00,-3.1150222,-9.57918,-0.91235274
1421109987518.00,-2.298171,-9.780661,-1.8336868
1421109987538.00,-1.8044975,-9.789043,-1.9995419
1421109987558.00,-1.7324972,-9.709259,-1.762884
1421109987579.00,-1.9577788,-9.471404,-1.3415103
1421109987599.00,-2.0330722,-9.1676855,-1.2266991
1421109987617.00,-1.2543914,-9.193881,-2.8138485
1421109987677.00,-0.6851253,-9.751921,-4.0954833
1421109987678.00,-2.432891,-9.905501,-3.0793962
1421109987679.00,-4.118236,-9.227711,-0.7518864
1421109987699.00,-3.9203477,-8.106992,-0.40595582
1421109987718.00,-2.5475523,-8.285271,-2.737208
1421109987737.00,-2.257755,-8.922047,-2.3294559
1421109987758.00,-3.2894096,-8.543035,-0.43888733
1421109987778.00,-3.0903237,-8.097112,-2.4095392
1421109987798.00,-1.2497511,-8.669821,-4.1132965
1421109987820.00,-1.2811857,-9.01186,-3.8558319
1421109987839.00,-2.2100043,-8.431816,-2.8056157
1421109987858.00,-2.90935,-7.896679,-3.6881804
1421109987878.00,-2.6449997,-8.039931,-4.799769
1421109987898.00,-2.2180874,-8.177046,-4.6854067
1421109987918.00,-2.6204507,-8.320448,-4.433331
1421109987939.00,-2.9053085,-8.442444,-4.6271777
1421109987993.00,-2.5806336,-8.273146,-4.718338
1421109987995.00,-2.1534219,-8.043823,-4.3858795
1421109988004.00,-2.5297394,-7.9228745,-4.224365
1421109988018.00,-2.8463311,-8.084389,-4.7595024
1421109988038.00,-3.1103818,-8.027657,-4.923262
1421109988058.00,-3.1311886,-7.8517723,-5.052743
1421109988081.00,-2.8421397,-7.695946,-5.206024
1421109988098.00,-2.3676264,-7.4230638,-5.3500247
1421109988118.00,-1.9974463,-7.6990895,-5.470524
1421109988138.00,-1.7702188,-7.7996807,-5.1193542
1421109988158.00,-2.2858965,-7.8900924,-5.105433
1421109988178.00,-2.2835014,-7.9643383,-5.2856584
1421109988198.00,-2.2815554,-7.7034307,-5.34269
1421109988218.00,-2.4397764,-7.5375757,-5.8951907
1421109988239.00,-2.3626869,-7.37681,-5.9463844
1421109988258.00,-2.2766159,-7.3319035,-6.0002723
1421109988344.00,-2.317331,-7.417076,-5.628745
1421109988346.00,-2.3878345,-7.5040455,-5.3365526
1421109988347.00,-2.3569987,-7.648794,-5.3480787
1421109988348.00,-2.2243743,-7.4495587,-5.47726
1421109988360.00,-2.3200254,-7.565268,-5.575306
1421109988379.00,-2.5571325,-7.595655,-5.4615426
1421109988398.00,-2.7846594,-7.520511,-5.687872
1421109988419.00,-2.6556275,-7.27577,-5.921985
1421109988438.00,-2.4261549,-6.792575,-6.2117825
1421109988489.00,-2.0483406,-6.66983,-6.3578787
1421109988490.00,-1.9835253,-6.667435,-6.289471
1421109988499.00,-2.3011646,-6.37644,-6.3863196
1421109988520.00,-2.2414389,-5.9779687,-6.686445
1421109988539.00,-2.3525078,-5.7886124,-6.9248996
1421109988559.00,-2.199975,-5.2724857,-6.7286577
1421109988578.00,-1.5527211,-5.5458174,-7.404652
1421109988654.00,-1.4395565,-5.5805454,-6.940617
1421109988655.00,-2.0920496,-5.4001703,-7.074738
1421109988657.00,-1.9763402,-5.459447,-7.408544
1421109988658.00,-1.7360898,-5.2530265,-7.801776
1421109988678.00,-1.7706679,-5.240602,-7.7643538
1421109988698.00,-2.0350182,-5.012626,-7.715406
1421109988718.00,-1.2208612,-4.8629375,-7.930359
1421109988738.00,-0.9991722,-4.524791,-7.5875716
1421109988758.00,-0.59441394,-4.0016284,-7.9920306
1421109988780.00,-0.8623567,-3.0157785,-8.60785
1421109988803.00,-1.5037729,-1.9977456,-9.455687
1421109988820.00,-1.3880635,-2.1685405,-9.644444
1421109988838.00,-1.2717553,-2.559228,-9.94008
1421109988859.00,-1.540746,-2.3698719,-10.524315
1421109988878.00,-2.228416,-1.9366727,-11.302097
1421109988898.00,-2.186054,-2.0486398,-12.386592
1421109988918.00,-1.305136,-2.1842577,-12.225976
1421109988938.00,-0.7484436,-2.1246817,-11.34865
1421109989050.00,-0.6200107,-2.245181,-11.003319
1421109989051.00,-0.6912625,-1.9612216,-10.426718
1421109989052.00,-0.5822891,-2.0064275,-9.514066
1421109989053.00,-0.45610154,-1.8775456,-8.98297
1421109989054.00,-0.23441254,-1.6848962,-8.307874
1421109989069.00,0.5043013,-2.268832,-8.59378
1421109989078.00,0.06197113,-1.6925304,-8.373138
1421109989103.00,0.17842895,-2.1586611,-9.115444
1421109989119.00,-0.004191284,-2.2098546,-9.494307
1421109989138.00,-0.17229171,-2.2742207,-9.524394
1421109989158.00,-0.3106041,-2.6276357,-9.561517
1421109989178.00,-0.49023056,-2.5756938,-9.4314375
1421109989202.00,-0.50744474,-2.6827211,-9.525442
1421109989218.00,-0.7702982,-2.5729995,-9.632469
1421109989238.00,-0.67704207,-2.4644752,-9.681867
1421109989304.00,-0.81730044,-2.3990612,-9.699829
1421109989306.00,-0.7165599,-2.3903792,-9.542057
1421109989307.00,-0.27303222,-2.2369483,-9.239836
1421109989318.00,0.017812958,-2.141896,-9.355096
1421109989338.00,0.14504836,-2.0676503,-9.181158
1421109989358.00,0.2642006,-1.9270926,-9.3100395
1421109989379.00,0.40011796,-2.1098626,-9.239686
1421109989399.00,0.305365,-2.165846,-9.200767
1421109989421.00,0.21974304,-2.1013303,-9.298813
1421109989438.00,0.24668701,-2.289489,-9.301507
1421109989458.00,0.12708573,-2.3165827,-9.339229
1421109989479.00,0.036524046,-2.498604,-9.214539
1421109989498.00,-0.0092807,-2.494712,-9.499396
1421109989519.00,-0.22977218,-2.4821384,-9.332942
1421109989538.00,-0.19534378,-2.4831862,-9.412577
1421109989558.00,-0.2748285,-2.5466542,-9.365873
1421109989621.00,-0.3793112,-2.512525,-9.287137
1421109989622.00,-0.327968,-2.5008495,-9.3289
1421109989623.00,-0.27557695,-2.5366251,-9.184751
1421109989643.00,-0.28216323,-2.398612,-9.225166
1421109989658.00,-0.20163071,-2.4257057,-9.209149
1421109989678.00,-0.10208771,-2.286645,-9.43488
1421109989699.00,0.043110352,-2.2400918,-9.329649
1421109989719.00,0.2880011,-2.1829107,-9.269624
1421109989738.00,0.18621276,-2.333198,-9.241781
1421109989759.00,0.10103989,-2.3381379,-9.350006
1421109989779.00,0.06915619,-2.2242248,-9.27142
1421109989798.00,0.22902374,-2.2002745,-9.263187
1421109989819.00,0.37212616,-2.396666,-9.1958275
1421109989839.00,0.38664597,-2.5830286,-9.24732
1421109989859.00,0.46687913,-2.5417144,-9.249715
1421109989879.00,0.31000534,-2.6276357,-9.340576
1421109989948.00,0.07798782,-2.664609,-9.474098
1421109989949.00,-0.15567628,-2.499652,-9.700877
1421109989950.00,-0.2481839,-2.495311,-9.649533
1421109989958.00,-0.44128236,-2.6451495,-9.217532
1421109989978.00,-0.15956818,-2.4990532,-9.288185
1421109989998.00,-0.1607657,-2.5291407,-9.452693
1421109990018.00,-0.13217515,-2.4031026,-9.490864
1421109990038.00,-0.14295273,-2.2168899,-9.621392
1421109990062.00,-0.039368134,-1.9470012,-9.448801
1421109990079.00,0.3887416,-1.8709593,-8.846304
1421109990101.00,0.56178176,-1.7304016,-8.826245
1421109990118.00,0.22318588,-1.5551162,-9.020542
1421109990139.00,7.48E-04,-1.617237,-8.55501
1421109990158.00,-0.09699829,-1.3668077,-8.412656
1421109990178.00,0.15373032,-1.549877,-8.77625
1421109990198.00,0.41329056,-1.2058923,-8.981623
1421109990219.00,0.58438474,-1.5200889,-9.55508
1421109990320.00,0.8027806,-1.7537531,-10.034384
1421109990321.00,0.782872,-1.669628,-9.896669
1421109990323.00,0.84199905,-1.8386265,-10.246792
1421109990324.00,0.74365354,-1.7387842,-10.519824
1421109990326.00,0.01287323,-0.9364526,-10.577903
1421109990346.00,0.1207988,-0.6373746,-10.905572
1421109990359.00,0.22213806,-1.2961546,-11.761342
1421109990378.00,-1.2163706,-1.3522879,-10.744806
1421109990400.00,-1.6919316,-1.8892213,-10.39199
1421109990418.00,-1.4183006,-2.7087672,-10.470576
1421109990439.00,-1.2542418,-3.662883,-9.698332
1421109990459.00,-1.099314,-4.276008,-9.119336
1421109990478.00,-1.6395406,-4.2647815,-9.462722
1421109990499.00,-2.7042763,-4.5132647,-9.398954
1421109990520.00,-3.041974,-4.7859974,-9.168734
1421109990539.00,-2.8165429,-5.0461564,-8.949888
1421109990637.00,-2.5791366,-5.2007847,-8.568781
1421109990638.00,-2.2200334,-5.55899,-8.400082
1421109990640.00,-1.563349,-5.619913,-7.9423337
1421109990641.00,-1.7336948,-5.628745,-7.9799056
1421109990642.00,-1.861978,-5.6589823,-7.680079
1421109990658.00,-2.0088227,-6.1352916,-7.3054085
1421109990680.00,-1.9302361,-6.946754,-7.0103717
1421109990698.00,-1.9226019,-7.13626,-6.8129325
1421109990719.00,-1.5516733,-7.1081185,-6.587651
1421109990742.00,-1.2618759,-7.063811,-6.102061
1421109990758.00,-1.4356645,-7.087761,-5.9010286
1421109990780.00,-1.9375708,-7.1308713,-5.618566
1421109990798.00,-2.214944,-7.333101,-5.0418153
1421109990819.00,-2.6673033,-7.406748,-4.641099
1421109990839.00,-2.665058,-7.2558613,-4.449198
1421109990858.00,-2.2387445,-6.997349,-4.365971
1421109990878.00,-1.7244141,-6.9028955,-3.8516405
1421109990980.00,-1.7266594,-6.944509,-3.4655933
1421109990984.00,-1.9320323,-6.9885173,-3.3819172
1421109990985.00,-1.6742684,-7.0215983,-3.4765205
1421109990986.00,-1.3937516,-6.976542,-3.7088375
1421109990987.00,-1.0937755,-7.2823563,-3.679199
1421109990998.00,-1.4886544,-8.124655,-3.487897
1421109991019.00,-1.9085312,-8.941956,-3.6166291
1421109991039.00,-2.1953347,-8.914263,-3.5949242
1421109991059.00,-2.0314257,-8.949141,-3.1696587
1421109991079.00,-2.2963746,-9.274414,-2.3965163
1421109991098.00,-2.6839187,-9.566307,-2.0672011
1421109991119.00,-3.2169602,-9.686507,-1.7636325
1421109991139.00,-3.4319134,-9.572444,-1.1232642
1421109991159.00,-3.336412,-9.416918,-0.5502557
1421109991178.00,-3.8113742,-9.387428,-0.13307327
1421109991316.00,-3.9197488,-8.90109,0.017363891
1421109991317.00,-3.5833983,-8.779842,0.22617966
1421109991318.00,-3.0222154,-9.146131,0.26075774
1421109991320.00,-2.805466,-9.608219,0.0477507
1421109991321.00,-2.818938,-9.71375,0.1392105
1421109991322.00,-3.0508058,-9.405392,0.49531996
1421109991323.00,-3.032843,-9.121881,0.4724176
1421109991338.00,-3.2030392,-8.913215,0.48768586
1421109991358.00,-3.5012193,-8.743019,1.1654763
1421109991378.00,-3.7877233,-8.888966,1.3048366
1421109991398.00,-3.5904336,-9.247769,0.9915381
1421109991418.00,-3.2771351,-9.404044,0.5572911
1421109991438.00,-3.1537917,-9.168883,0.22617966
1421109991459.00,-3.1931598,-9.241183,0.007933502
1421109991478.00,-3.3172517,-9.437574,0.24983047
1421109991498.00,-3.3832645,-9.192235,0.32976425
1421109991731.00,-3.1109807,-9.221125,0.3769162
1421109991732.00,-3.0846355,-9.294771,0.07304809
1421109991733.00,-3.214116,-9.497001,-0.2944377
1421109991733.00,-3.1150222,-9.379346,-0.28470793
1421109991735.00,-3.0376332,-9.328601,-0.3502716
1421109991738.00,-3.1109807,-9.318572,-0.3528163
1421109991740.00,-3.1855257,-9.43009,-0.21076173
1421109991742.00,-2.8229797,-9.423055,-0.34802628
1421109991743.00,-2.7026298,-9.308693,-0.35476226
1421109991744.00,-2.5879683,-9.358089,-0.36823425
1421109991745.00,-2.5228536,-9.345816,-0.53858
1421109991746.00,-2.4983048,-9.415121,-0.6288423
1421109991760.00,-2.6550288,-9.381441,-0.47421387
1421109991778.00,-2.787653,-9.376053,-0.4540059
1421109991799.00,-2.7625053,-9.422156,-0.52795213
1421109991819.00,-2.7018814,-9.227262,-0.39592665
1421109991841.00,-2.6801765,-9.423654,-0.18621276
1421109991934.00,-2.6141639,-9.321566,-0.14804214
1421109991936.00,-2.8294163,-9.402846,-0.20297791
1421109991938.00,-2.8840525,-9.406439,-0.19953507
1421109991939.00,-2.7488837,-9.511221,-0.4273613
1421109991940.00,-2.6861641,-9.539662,-0.36299515
1421109991959.00,-2.7563682,-9.346863,-0.4830455
1421109991979.00,-2.8488758,-9.410181,-0.2415976
1421109991999.00,-2.9524603,-9.396859,-0.13711487
1421109992019.00,-3.0394294,-9.455237,0.05598358
1421109992039.00,-2.9163854,-9.297765,-0.17259109
1421109992059.00,-2.9813502,-9.24732,-0.18471588
1421109992079.00,-2.8985724,-9.251512,-0.22273682
1421109992099.00,-2.8870463,-9.2331,-0.183219
1421109992120.00,-2.6605673,-9.360335,-0.14265335
1421109992139.00,-2.608326,-9.297765,-0.14310242
1421109992162.00,-2.492467,-9.469608,-0.11825409
1421109992179.00,-2.6731412,-9.420959,-0.34623
1421109992239.00,-2.4989035,-9.574091,-0.37586838
1421109992240.00,-2.530338,-9.5616665,-0.5083429
1421109992240.00,-2.5423133,-9.645641,-0.29129425
1421109992260.00,-2.912793,-9.474248,-0.13786331
1421109992279.00,-3.0705647,-9.521251,-0.0398172
1421109992299.00,-2.7279272,-9.452244,-0.18591338
1421109992319.00,-2.7610085,-9.12727,-0.003592529
1421109992339.00,-3.0587394,-9.128468,0.23456222
1421109992359.00,-3.2802787,-9.30989,0.22064118
1421109992379.00,-3.1870224,-9.361233,-0.18142273
1421109992399.00,-2.9904814,-9.541907,-0.2481839
1421109992420.00,-3.0677207,-9.414522,-0.29832962
1421109992439.00,-3.2368689,-9.125025,-0.4831952
1421109992459.00,-3.2105236,-9.235195,-0.31629226
1421109992479.00,-3.121459,-9.351204,-0.47660887
1421109992499.00,-3.0039532,-9.55029,-0.57390654
1421109992553.00,-2.8639944,-9.534722,-0.7271878
1421109992554.00,-2.6752367,-9.038654,-0.74485105
1421109992558.00,-2.5628207,-8.990753,-0.5132826
1421109992579.00,-2.8119025,-9.32905,-0.19414628
1421109992599.00,-3.012785,-9.717792,-0.14025833
1421109992619.00,-2.7408004,-9.268426,-0.35476226
1421109992639.00,-2.587669,-9.214988,-0.77179503
1421109992659.00,-2.355801,-9.337732,-0.9596544
1421109992679.00,-2.3903792,-9.249116,-0.7851173
1421109992699.00,-2.4209156,-9.12712,-0.6527925
1421109992719.00,-2.7095156,-8.8332815,-0.4128415
1421109992739.00,-3.1421158,-9.120384,-0.37736526
1421109992759.00,-3.3919463,-9.330098,-0.6649173
1421109992780.00,-2.9556038,-9.464069,-1.5404466
1421109992800.00,-2.4876769,-9.741293,-2.074536
1421109992819.00,-2.4574397,-9.549392,-1.6796571
1421109992876.00,-2.6593697,-9.398207,-1.1297008
1421109992878.00,-2.7997777,-9.34357,-1.0309062
1421109992879.00,-2.5233028,-9.238189,-1.0556048
1421109992899.00,-2.4761508,-9.374406,-1.1638298
1421109992919.00,-2.5463548,-9.3188715,-1.1690689
1421109992939.00,-2.7680438,-9.422755,-1.109343
1421109992959.00,-2.7550209,-9.397159,-1.0630893
1421109992979.00,-2.5378225,-9.472003,-1.0978171
1421109992999.00,-2.4795938,-9.39656,-0.8696915
1421109993021.00,-2.7773244,-9.210796,-0.7388635
1421109993039.00,-2.9588969,-9.331894,-0.78377014
1421109993059.00,-2.9214747,-9.402547,-0.7937993
1421109993079.00,-2.9193792,-9.496851,-0.75143737
1421109993099.00,-2.9837453,-9.332493,-0.5908214
1421109993119.00,-3.17864,-9.210497,-0.43439665
1421109993139.00,-3.1599288,-9.409733,-0.34158966
1421109993205.00,-3.2115715,-9.352551,-0.38185593
1421109993207.00,-3.0211675,-9.274863,-0.4209247
1421109993207.00,-2.801125,-9.277408,-0.565524
1421109993220.00,-2.744393,-9.330098,-0.5578899
1421109993239.00,-2.9443772,-9.256002,-0.63468015
1421109993259.00,-2.8810587,-9.335187,-0.53423905
1421109993281.00,-2.6764343,-9.412427,-0.56342834
1421109993299.00,-2.8653414,-9.28594,-0.75712556
1421109993320.00,-2.91414,-9.32905,-0.6369255
1421109993348.00,-2.9428802,-9.358089,-0.57914567
1421109993360.00,-2.7973828,-9.276509,-0.76101744
1421109993379.00,-2.716102,-9.138646,-0.63782364
1421109993401.00,-2.7297235,-9.361233,-0.6351292
1421109993420.00,-2.9219239,-9.381291,-0.4737648
1421109993440.00,-2.8798614,-9.330847,-0.5028044
1421109993463.00,-2.810256,-9.246721,-0.68437684
1421109993544.00,-2.8615992,-9.327105,-0.8107141
1421109993545.00,-3.040627,-9.243129,-0.5078938
1421109993546.00,-2.967579,-9.265432,-0.6146219
1421109993547.00,-2.924768,-9.301507,-0.624651
1421109993565.00,-2.8105555,-9.262738,-0.5011578
1421109993579.00,-2.9840446,-9.209599,-0.72793627
1421109993600.00,-2.9053085,-9.36288,-0.7503896
1421109993620.00,-3.085833,-9.376651,-0.6044431
1421109993640.00,-2.9124935,-9.265882,-0.74260575
1421109993663.00,-2.805017,-9.367221,-0.83256865
1421109993680.00,-2.751129,-9.250164,-0.86894304
1421109993699.00,-2.7680438,-9.26678,-0.82807803
1421109993719.00,-2.7476861,-9.394764,-0.77868074
1421109993739.00,-2.5715024,-9.317075,-0.9340576
1421109993763.00,-2.724185,-9.331295,-0.9035211
1421109993783.00,-2.7354116,-9.33414,-0.83376616
1421109993805.00,-2.7424471,-9.361981,-0.9105565
1421109993829.00,-2.8000772,-9.313183,-1.0133927
1421109993890.00,-2.857857,-9.476644,-1.0599458
1421109993891.00,-2.883304,-9.27142,-0.92043597
1421109993892.00,-2.8821065,-9.272917,-0.81670165
1421109993899.00,-2.9346473,-9.236692,-0.8412506
1421109993919.00,-2.9072542,-9.285341,-0.8475375
1421109993939.00,-2.793042,-9.21394,-0.85816544
1421109993962.00,-2.8099566,-9.283095,-1.0566527
1421109993981.00,-2.9916787,-9.288485,-1.1648777
1421109993999.00,-3.2130685,-9.339079,-1.1930192
1421109994021.00,-3.2650104,-9.545949,-1.1979588
1421109994039.00,-3.200794,-9.423953,-1.2220588
1421109994059.00,-3.197351,-9.3116865,-1.0029144
1421109994079.00,-2.996319,-9.2566,-0.70653075
1421109994099.00,-2.5732987,-9.128168,-0.55579424
1421109994121.00,-2.2400918,-9.216784,-0.41478744
1421109994139.00,-2.0761826,-9.363778,-0.49711624
1421109994198.00,-2.0748353,-9.434132,-0.7453001
1421109994199.00,-2.152973,-9.429192,-0.977617
1421109994200.00,-2.45729,-9.4494,-1.1030562
1421109994220.00,-2.6146128,-9.292826,-0.96833634
1421109994239.00,-2.896327,-9.277707,-0.82598233
1421109994260.00,-3.0611343,-9.198222,-0.74574924
1421109994281.00,-3.2991395,-9.198971,-0.7485933
1421109994299.00,-3.3659005,-9.272168,-0.77448946
1421109994320.00,-3.3388069,-9.184301,-1.1596385
1421109994339.00,-3.1364279,-9.277857,-1.2482543
1421109994359.00,-3.1500494,-9.358838,-1.1657758
1421109994379.00,-3.0852342,-9.217233,-0.99303496
1421109994399.00,-2.9503646,-9.214988,-1.0184821
1421109994421.00,-2.8175907,-9.29028,-1.2745994
1421109994442.00,-2.878514,-9.353898,-1.321452
1421109994463.00,-2.6921515,-9.134604,-1.0708731
1421109994541.00,-2.7572663,-9.435479,-1.1496093
1421109994542.00,-2.6807754,-9.303903,-1.2868739
1421109994543.00,-2.5605752,-9.198072,-1.3400134
1421109994544.00,-2.473606,-9.233549,-1.2040961
1421109994566.00,-2.7292745,-9.307196,-1.4018348
1421109994579.00,-2.7882519,-9.419163,-1.4676979
1421109994599.00,-2.5134232,-9.371861,-1.4400055
1421109994619.00,-2.6364675,-9.168883,-1.2217593
1421109994642.00,-3.058889,-9.151071,-1.0726694
1421109994665.00,-3.3290772,-9.207503,-0.88451064
1421109994680.00,-3.1308892,-9.313333,-1.0677296
1421109994700.00,-2.7204428,-9.018296,-1.506617
1421109994723.00,-3.0677207,-9.298064,-1.4759308
1421109994740.00,-3.2711477,-9.53083,-1.2618759
1421109994760.00,-3.1443613,-9.316476,-1.315165
1421109994780.00,-2.5411158,-9.366173,-1.4961388
1421109994828.00,-2.4563918,-9.249266,-1.4428496
1421109994829.00,-2.8036697,-9.260492,-1.4199471
1421109994839.00,-3.194956,-9.313333,-1.3003459
1421109994860.00,-3.166515,-9.293873,-1.2686119
1421109994880.00,-2.8421397,-9.304202,-1.5021263
1421109994899.00,-2.9026139,-9.276509,-1.5482304
1421109994919.00,-3.1382241,-9.0832615,-1.2790902
1421109994939.00,-3.2430062,-9.231453,-1.1415262
1421109994959.00,-3.0755045,-9.173224,-1.1054512
1421109994979.00,-3.0741572,-9.179511,-1.1981086
1421109994999.00,-2.995421,-9.26169,-1.2525952
1421109995020.00,-3.0731094,-9.237142,-1.2135265
1421109995039.00,-3.000211,-9.173075,-1.2281959
1421109995060.00,-3.1216085,-9.131761,-1.194516
1421109995080.00,-3.114124,-9.190588,-1.271456
1421109995099.00,-3.080444,-9.191037,-1.3650115
1421109995208.00,-3.0749056,-9.157357,-1.3617183
1421109995209.00,-3.0614338,-9.123528,-1.3937516
1421109995210.00,-2.9253666,-9.22307,-1.5608042
1421109995211.00,-2.859354,-9.250314,-1.5476317
1421109995211.00,-2.9291089,-9.19942,-1.4169534
1421109995224.00,-3.0044024,-9.233849,-1.327739
1421109995241.00,-3.171006,-9.11754,-1.5708334
1421109995263.00,-3.0329928,-9.113199,-1.4679973
1421109995280.00,-3.0778995,-9.22786,-1.3814772
1421109995300.00,-3.0585897,-9.203312,-1.377735
1421109995324.00,-2.886298,-9.195079,-1.4778768
1421109995340.00,-2.8198361,-9.209,-1.5045214
1421109995360.00,-2.7180479,-9.219777,-1.463357
1421109995379.00,-2.8274703,-9.1323595,-1.2998968
1421109995399.00,-2.9870384,-9.134155,-1.4230907
1421109995420.00,-3.0518537,-9.159303,-1.4928457
1421109995485.00,-3.0710137,-9.201964,-1.3964461
1421109995486.00,-3.0437706,-9.226065,-1.3927039
1421109995486.00,-3.0038035,-9.275162,-1.5223343
1421109995499.00,-2.933899,-9.23295,-1.4630575
1421109995520.00,-2.9109964,-9.143137,-1.4145584
1421109995542.00,-2.850672,-9.275013,-1.4242882
1421109995563.00,-2.8177404,-9.272767,-1.5763719
1421109995579.00,-2.7701395,-9.199869,-1.5102096
1421109995600.00,-2.8270211,-9.143436,-1.4364129
1421109995620.00,-2.8821065,-9.242081,-1.5549664
1421109995640.00,-2.8988717,-9.236393,-1.4850618
1421109995660.00,-2.790497,-9.116642,-1.4973363
1421109995679.00,-2.812202,-9.2747135,-1.2850777
1421109995700.00,-3.0168264,-9.197773,-1.3918058
1421109995722.00,-2.9789553,-9.195079,-1.3901591
1421109995740.00,-3.0469139,-9.206156,-1.5410454
1421109995761.00,-2.993475,-9.361981,-1.4947915
1421109995842.00,-2.8660898,-9.231004,-1.3123211
1421109995843.00,-3.1100826,-9.154214,-1.3813275
1421109995844.00,-3.1106813,-9.149424,-1.4069242
1421109995845.00,-2.9547057,-9.151669,-1.2952565
1421109995861.00,-2.9482691,-9.062754,-1.3145664
1421109995879.00,-2.8981233,-9.343121,-1.3937516
1421109995900.00,-2.806364,-9.282946,-1.3630655
1421109995920.00,-2.988236,-9.217532,-1.3871654
1421109995946.00,-2.8563602,-9.267677,-1.5383509
1421109995963.00,-2.8520193,-9.449999,-1.3341756
1421109995981.00,-2.9231215,-9.177864,-1.400787
1421109996003.00,-3.0283525,-9.143886,-1.5236815
1421109996020.00,-3.060386,-9.217981,-1.4727874
1421109996043.00,-3.2980917,-9.219478,-1.4724879
1421109996060.00,-3.2947984,-9.316028,-1.3724959
1421109996080.00,-3.0819411,-9.190588,-1.5191908
1421109996138.00,-3.0605357,-9.099129,-1.3132192
1421109996139.00,-3.1287937,-9.114396,-1.0401869
1421109996140.00,-3.1231055,-9.195229,-1.1743081
1421109996160.00,-3.1422656,-9.17038,-1.3521382
1421109996179.00,-3.1292427,-9.169632,-1.367107
1421109996200.00,-3.1289434,-9.163943,-1.3403128
1421109996219.00,-3.1500494,-9.073232,-1.3620176
1421109996240.00,-3.1006522,-9.103619,-1.3201048
1421109996263.00,-3.115621,-9.115893,-1.2813355
1421109996279.00,-3.2087274,-9.263786,-1.382525
1421109996299.00,-3.1421158,-9.169632,-1.3910573
1421109996319.00,-3.0903237,-9.234596,-1.3627661
1421109996339.00,-3.020868,-9.216185,-1.2165202
1421109996359.00,-3.0437706,-9.183553,-1.1135345
1421109996380.00,-3.1729517,-9.22307,-1.2946577
1421109996400.00,-3.0776,-9.288035,-1.0852432
1421109996420.00,-3.032544,-9.043294,-0.99617845
1421109996492.00,-3.030598,-9.136999,-1.2259506
1421109996493.00,-3.051255,-9.241781,-1.4470409
1421109996494.00,-3.1491513,-9.210796,-1.4156063
1421109996499.00,-3.0470636,-9.157956,-1.5298188
1421109996521.00,-3.0871801,-9.316925,-1.4702426
1421109996540.00,-3.0886772,-9.266031,-1.2945081
1421109996560.00,-3.0289512,-9.065,-1.3063334
1421109996580.00,-3.2048354,-9.191936,-1.3078303
1421109996600.00,-3.0395792,-9.128318,-1.2621753
1421109996620.00,-3.041076,-9.123378,-1.2942086
1421109996640.00,-2.984344,-9.239686,-1.3717475
1421109996660.00,-3.0231135,-9.248368,-1.2368779
1421109996679.00,-2.9767098,-9.203012,-1.2846286
1421109996700.00,-3.0033545,-9.080566,-1.3063334
1421109996720.00,-3.0023067,-9.23295,-1.1952645
1421109996740.00,-3.046465,-9.215885,-1.3364209
1421109996760.00,-3.0412257,-9.168135,-1.3921051
1421109996822.00,-3.112777,-9.10766,-1.2725039
1421109996823.00,-3.2382162,-9.265432,-1.2461586
1421109996824.00,-3.1329849,-9.200767,-1.3184582
1421109996844.00,-3.1030471,-9.221424,-1.323398
1421109996860.00,-3.0886772,-9.279054,-1.3751903
1421109996881.00,-2.9880862,-9.209149,-1.2701088
1421109996900.00,-3.0714629,-9.177715,-1.4049783
1421109996920.00,-3.0889764,-9.201964,-1.3747412
1421109996943.00,-3.1085856,-9.222771,-1.3443544
1421109996960.00,-3.1437626,-9.225765,-1.2726535
1421109996989.00,-3.170407,-9.167087,-1.3334271
1421109997000.00,-3.0391302,-9.191786,-1.2699591
1421109997020.00,-3.0455668,-9.085956,-1.2978013
1421109997040.00,-3.075654,-9.234447,-1.3076806
1421109997060.00,-3.1211596,-9.172626,-1.2539424
1421109997147.00,-2.9961693,-9.162597,-1.2533437
1421109997148.00,-3.0178742,-9.135054,-1.3723462
1421109997149.00,-2.9859905,-9.258247,-1.26951
1421109997150.00,-3.1852262,-9.192534,-1.1849359
1421109997242.00,-3.171006,-9.04045,-1.2981006
1421109997243.00,-3.069966,-9.279353,-1.3060341
1421109997244.00,-2.9994626,-9.131461,-1.3977933
1421109997244.00,-3.0313463,-9.154963,-1.2564871
1421109997245.00,-3.0590386,-9.232052,-1.2006532
1421109997262.00,-3.1150222,-9.190438,-1.3043876
1421109997298.00,-3.1189141,-9.188193,-1.3275893
1421109997301.00,-3.0864317,-9.103169,-1.2108321
1421109997324.00,-3.194956,-9.206156,-1.3108242
1421109997340.00,-3.0301487,-9.095535,-1.1044034
1421109997360.00,-3.158432,-9.1748705,-1.0600955
1421109997380.00,-3.1980996,-9.174721,-1.1774515
1421109997444.00,-3.2048354,-9.222023,-1.0940748
1421109997445.00,-3.0460157,-9.250164,-1.2277468
1421109997446.00,-3.0885274,-9.136251,-1.2115805
1421109997476.00,-3.1316378,-9.131311,-1.2756473
1421109997480.00,-3.126698,-9.1958275,-1.3148657
1421109997503.00,-3.248395,-9.245075,-1.2157718
1421109997520.00,-3.0090427,-9.241034,-1.2481046
1421109997540.00,-3.1482532,-9.245374,-1.287772
1421109997560.00,-3.1931598,-9.157806,-1.2557387
1421109997582.00,-3.0042527,-9.202863,-1.2431648
1421109997603.00,-3.051704,-9.1991205,-1.2135265
1421109997620.00,-3.012785,-9.272468,-1.3470488
1421109997640.00,-3.0499077,-9.289982,-1.4624588
1421109997660.00,-3.0558953,-9.220975,-1.2250525
1421109997680.00,-3.0570927,-9.253158,-1.1091934
1421109997707.00,-3.075654,-9.201515,-1.2814851
1421109997723.00,-2.999762,-9.137149,-1.3241464
1421109997787.00,-3.100203,-9.19463,-1.3034893
1421109997788.00,-3.1009514,-9.029074,-1.1723621
1421109997789.00,-3.0967603,-9.019195,-1.2352313
1421109997800.00,-3.1024485,-9.185947,-1.1891272
1421109997820.00,-2.9448261,-9.193432,-1.1717633
1421109997840.00,-3.133883,-9.2328005,-1.2289444
1421109997860.00,-2.9330008,-9.193582,-1.3684543
1421109997887.00,-3.0888267,-9.275311,-1.2247531
1421109997904.00,-2.945425,-9.130563,-1.1793975
1421109997934.00,-3.0952635,-9.291778,-1.242117
1421109997946.00,-3.1172676,-9.203462,-1.3129197
1421109997960.00,-3.0937665,-9.351953,-1.2766951
1421109997980.00,-3.0668225,-9.227411,-1.3263917
1421109998000.00,-2.9955707,-9.165141,-1.4236894
1421109998020.00,-3.0448182,-9.216484,-1.3681549
1421109998099.00,-3.0692174,-9.162447,-1.391207
1421109998100.00,-2.9184809,-9.224867,-1.4274316
1421109998101.00,-3.1293924,-9.19463,-1.2817845
1421109998102.00,-3.1546898,-9.302705,-1.2719051
1421109998130.00,-3.1624737,-9.214539,-1.1451187
1421109998140.00,-3.2777338,-9.202414,-0.9993219
1421109998160.00,-3.1885195,-9.234147,-1.1635305
1421109998180.00,-3.216661,-9.0518265,-1.083447
1421109998200.00,-3.1504984,-9.178613,-1.2359798
1421109998222.00,-3.20274,-9.09853,-1.133443
1421109998244.00,-3.291655,-9.172326,-1.1051518
1421109998260.00,-3.1832802,-9.233399,-1.2108321
1421109998286.00,-3.1332843,-9.216334,-1.2817845
1421109998303.00,-3.1222074,-9.257648,-1.1889775
1421109998323.00,-2.9535081,-9.271869,-1.2967534
1421109998340.00,-2.8755202,-9.172027,-1.300795
1421109998413.00,-2.87567,-9.035062,-1.3365706
1421109998414.00,-3.0437706,-9.367221,-1.2005036
1421109998415.00,-3.0897248,-9.301956,-1.3145664
1421109998420.00,-3.2183075,-9.258996,-1.346001
1421109998441.00,-3.29405,-9.315279,-1.3129197
1421109998461.00,-3.4016762,-9.069939,-1.278192
1421109998481.00,-3.246898,-9.110953,-1.167123
1421109998500.00,-3.1629226,-9.142388,-1.3239968
1421109998522.00,-3.1927106,-9.163195,-1.2584331
1421109998541.00,-3.2061827,-9.161099,-1.2766951
1421109998560.00,-3.1825318,-9.206156,-1.2737013
1421109998581.00,-3.1269975,-9.240584,-1.3461506
1421109998600.00,-3.0472133,-9.176368,-1.3997393
1421109998620.00,-3.1292427,-9.137149,-1.2943584
1421109998641.00,-3.2064822,-9.241931,-1.1871812
1421109998660.00,-3.227738,-9.238338,-1.1990067
1421109998680.00,-3.1172676,-9.176667,-1.2674145
1421109998702.00,-3.1963034,-9.216484,-1.2455598
1421109998773.00,-3.145409,-9.137149,-1.2588822
1421109998775.00,-3.15454,-9.332792,-1.4097683
1421109998776.00,-3.126698,-9.241034,-1.3236973
1421109998780.00,-3.1331346,-9.174122,-1.3858181
1421109998800.00,-3.1455588,-9.113199,-1.2491524
1421109998820.00,-3.2498918,-9.0518265,-1.1789484
1421109998840.00,-3.104095,-9.197174,-1.2814851
1421109998860.00,-3.216661,-9.314381,-1.3609699
1421109998880.00,-3.169958,-9.241482,-1.3846207
1421109998901.00,-3.2615676,-9.259595,-1.3829741
1421109998921.00,-3.0885274,-9.160501,-1.33687
1421109998941.00,-3.045417,-9.186397,-1.3546829
1421109998962.00,-3.080145,-9.089249,-1.2907659
1421109998980.00,-3.0744567,-9.228909,-1.3093272
1421109999001.00,-3.123854,-9.268576,-1.1957135
1421109999023.00,-3.1114297,-9.10302,-1.2798386
1421109999088.00,-3.0585897,-9.1323595,-1.3563294
1421109999089.00,-3.069068,-9.173973,-1.2499008
1421109999089.00,-3.1168184,-9.221873,-1.2284954
1421109999100.00,-3.142565,-9.131611,-1.3626164
1421109999120.00,-3.0404773,-9.124875,-1.3744419
1421109999140.00,-3.1313384,-9.204958,-1.2874727
1421109999160.00,-3.2208521,-9.00213,-1.2885205
1421109999180.00,-3.1927106,-9.148675,-1.2870237
1421109999202.00,-3.0551467,-9.182055,-1.4352155
1421109999225.00,-3.0653257,-9.198072,-1.4054275
1421109999241.00,-3.0897248,-9.133706,-1.2412189
1421109999260.00,-3.0852342,-9.215586,-1.2963043
1421109999280.00,-3.0669723,-9.184301,-1.3082794
1421109999303.00,-3.177143,-9.191337,-1.2783417
1421109999323.00,-3.1439123,-9.173973,-1.1385324
1421109999342.00,-3.1698084,-9.185798,-1.2368779
1421109999368.00,-3.219505,-9.16065,-1.2515473
1421109999433.00,-3.003055,-9.096434,-1.2448114
1421109999434.00,-3.113226,-9.205856,-1.3933026
1421109999435.00,-3.2105236,-9.104517,-1.2822336
1421109999440.00,-3.2204032,-9.142688,-1.2970527
1421109999462.00,-3.1909144,-9.139844,-1.2177178
1421109999480.00,-3.1826816,-9.067394,-1.2470567
1421109999500.00,-3.118615,-9.183253,-1.248853
1421109999520.00,-3.1802866,-9.110953,-1.2657678
1421109999540.00,-3.1904655,-9.238338,-1.2973522
1421109999560.00,-3.2263906,-9.162447,-1.4123131
1421109999580.00,-3.0075457,-9.231004,-1.250799
1421109999600.00,-3.0329928,-9.307795,-1.1723621
1421109999622.00,-3.1070888,-9.322015,-1.2433145
1421109999640.00,-3.1934593,-9.156459,-1.2464579
1421109999660.00,-3.0159283,-9.188343,-1.3971945
1421109999686.00,-3.0811927,-9.234447,-1.2693603
1421109999700.00,-3.1255004,-9.194779,-1.2380754
1421109999755.00,-3.1189141,-9.159303,-1.3653108
1421109999756.00,-3.170407,-9.140293,-1.4227912
1421109999760.00,-3.1542406,-9.069939,-1.3560301
1421109999780.00,-3.3524287,-9.141939,-1.2174183
1421109999804.00,-3.249742,-9.161249,-1.3109738
1421109999822.00,-3.083438,-9.235495,-1.3004956
1421109999841.00,-3.2401621,-9.165141,-1.2799883
1421109999860.00,-3.1726525,-8.980125,-1.3480966
1421109999881.00,-3.083438,-9.040151,-1.3418097
1421109999901.00,-3.0886772,-9.063203,-1.361419
1421109999920.00,-3.1278956,-9.038055,-1.3263917
1421109999941.00,-3.0153296,-9.113499,-1.4150075
1421109999961.00,-3.0615835,-9.1608,-1.4069242
1421109999980.00,-2.887645,-9.153166,-1.5890955
1421110000047.00,-2.9755125,-9.332044,-1.5968792
1421110000048.00,-3.1177168,-9.209599,-1.6230748
1421110000049.00,-3.0758038,-9.216933,-1.3965957
1421110000061.00,-3.0951138,-9.153765,-1.427282
1421110000081.00,-3.146906,-9.215586,-1.2831317
1421110000101.00,-3.265609,-9.032816,-1.3015435
1421110000121.00,-3.3208442,-9.154364,-1.1304492
1421110000141.00,-3.1335838,-9.047935,-1.0286609
1421110000167.00,-3.0835876,-9.14164,-1.1618838
1421110000182.00,-3.0313463,-9.220675,-1.3632152
1421110000202.00,-3.115621,-9.228459,-1.3901591
1421110000220.00,-3.0865815,-9.222771,-1.3386662
1421110000240.00,-3.0365853,-9.238488,-1.3100756
1421110000260.00,-3.129991,-9.235045,-1.3235477
1421110000281.00,-3.09691,-9.205407,-1.2771442
1421110000300.00,-2.896327,-9.129066,-1.4208454
1421110000320.00,-3.1519954,-9.213341,-1.3314812
1421110000342.00,-3.3223412,-9.12697,-1.411864
1421110000404.00,-3.11607,-9.113648,-1.2422667
1421110000406.00,-3.0355375,-9.149573,-1.2180171
1421110000406.00,-3.0831385,-9.153316,-1.2271482
1421110000426.00,-2.9571006,-9.214688,-1.1385324
1421110000441.00,-3.0518537,-9.286538,-1.1764036
1421110000460.00,-2.909799,-9.278755,-1.1813434
1421110000480.00,-3.1455588,-9.224717,-1.4064752
1421110000500.00,-2.9903316,-9.16065,-1.291664
1421110000520.00,-3.051704,-9.176218,-1.1871812
1421110000540.00,-3.1943574,-9.310189,-1.0346484
1421110000561.00,-3.3135095,-9.277707,-0.99722624
1421110000581.00,-3.2078292,-9.108858,-1.011297
1421110000602.00,-3.2855177,-9.171727,-1.1768527
1421110000621.00,-3.1596296,-9.175619,-1.0377918
1421110000641.00,-3.217559,-9.29043,-1.0826985
1421110000662.00,-3.1311886,-9.284143,-1.0151889
1421110000732.00,-3.1433134,-9.092392,-0.7890093
1421110000734.00,-3.0317953,-9.197024,-1.0475217
1421110000735.00,-2.9024644,-9.12233,-1.0178833
1421110000740.00,-3.0404773,-9.111552,-1.1374846
1421110000761.00,-2.9109964,-9.226214,-1.1021581
1421110000780.00,-2.981949,-9.301357,-1.0762619
1421110000801.00,-3.0609846,-9.212293,-0.8930429
1421110000821.00,-2.95261,-9.15152,-0.9906399
1421110000844.00,-3.1202614,-9.186247,-1.1374846
1421110000860.00,-3.023263,-9.279653,-1.1362871
1421110000885.00,-2.7553203,-9.239387,-1.2253518
1421110000901.00,-2.9081526,-9.291179,-1.2093352
1421110000921.00,-3.1370265,-9.158106,-1.1928694
1421110000943.00,-3.1362782,-9.097781,-1.0597961
1421110000960.00,-3.2109728,-9.1307125,-1.1099418
1421110000980.00,-3.0376332,-9.204958,-1.2249027
1421110001001.00,-3.0376332,-9.136251,-1.2440629
1421110001175.00,-3.096311,-9.2681265,-1.1466156
1421110001176.00,-3.118016,-9.231303,-1.0304571
1421110001180.00,-2.973267,-9.227262,-1.1722124
1421110001181.00,-2.8331585,-9.179361,-1.0957215
1421110001182.00,-2.9990134,-9.269474,-1.085393
1421110001183.00,-2.9900322,-9.349558,-0.8440947
1421110001184.00,-2.9312046,-9.284892,-0.99453187
1421110001185.00,-3.0294003,-9.2504635,-1.0777588
1421110001186.00,-3.0356872,-9.169482,-1.0060579
1421110001201.00,-2.9761112,-9.101523,-1.0502161
1421110001224.00,-3.0789473,-9.161998,-1.051713
1421110001240.00,-2.9472213,-9.17996,-0.8789722
1421110001261.00,-3.0945148,-9.335486,-1.0722203
1421110001282.00,-3.0693672,-9.322314,-1.0594968
1421110001368.00,-3.1470556,-9.200617,-1.1349399
1421110001369.00,-3.0511053,-9.267229,-1.0318043
1421110001370.00,-3.0352383,-9.31977,-0.8825647
1421110001371.00,-3.0067973,-9.316476,-0.96863574
1421110001380.00,-3.0307474,-9.230555,-1.1302996
1421110001401.00,-2.9599447,-9.117241,-1.0756631
1421110001421.00,-2.8277695,-9.251512,-1.1889775
1421110001441.00,-2.9446764,-9.202414,-1.0084529
1421110001462.00,-3.0576916,-9.289832,-0.9331595
1421110001481.00,-2.9831464,-9.2256155,-0.95621157
1421110001501.00,-2.9729676,-9.258547,-1.1594888
1421110001521.00,-3.0681696,-9.340426,-1.1440709
1421110001541.00,-3.0388308,-9.220825,-1.2082874
1421110001561.00,-2.9115953,-9.371712,-1.2293935
1421110001582.00,-2.928061,-9.288335,-1.1282039
1421110001601.00,-2.7840605,-9.119186,-0.99543
1421110001621.00,-2.880011,-9.1323595,-1.0032138
1421110001715.00,-2.8494744,-9.326506,-1.0690769
1421110001716.00,-2.9235704,-9.34357,-0.9216335
1421110001718.00,-2.9832962,-9.281749,-0.88466036
1421110001720.00,-3.0202694,-9.185947,-0.76640624
1421110001721.00,-2.9985645,-9.268875,-0.701591
1421110001740.00,-2.9979658,-9.1588545,-0.76655596
1421110001764.00,-3.0163774,-9.234746,-0.60773623
1421110001781.00,-3.0978081,-9.311836,-0.6870712
1421110001801.00,-3.2278876,-9.344468,-0.8310718
1421110001821.00,-3.1298416,-9.304352,-0.6899153
1421110001841.00,-3.4084122,-9.183403,-0.7069798
1421110001861.00,-3.4390984,-9.086255,-0.5947133
1421110001881.00,-3.2013927,-9.244776,-0.5878276
1421110001901.00,-2.805466,-9.364676,-0.77164537
1421110001921.00,-2.7867548,-9.234447,-0.775687
1421110001941.00,-2.937192,-9.204958,-0.6655161
1421110001961.00,-2.9225225,-9.303154,-0.62315416
1421110002086.00,-2.8828552,-9.371861,-0.8457413
1421110002087.00,-2.7900481,-9.419612,-0.9279204
1421110002088.00,-2.676135,-9.254355,-1.0852432
1421110002091.00,-2.9244685,-9.16559,-1.1621833
1421110002092.00,-3.0370345,-9.306148,-0.83122146
1421110002093.00,-3.1840289,-9.460327,-0.9201366
1421110002102.00,-3.040627,-9.298663,-1.2014017
1421110002124.00,-2.91414,-8.965456,-1.3715978
1421110002146.00,-3.204686,-8.962163,-1.2367282
1421110002161.00,-3.5491195,-8.946445,-1.0500664
1421110002181.00,-3.4640963,-9.400601,-0.95321774
1421110002205.00,-3.0886772,-9.294472,-1.2704082
1421110002220.00,-2.7632537,-9.280551,-1.4989829
1421110002240.00,-2.6167085,-9.324559,-1.453178
1421110002261.00,-2.7577152,-9.269624,-1.5572118
1421110002282.00,-3.0256581,-9.318422,-1.5085629
1421110002357.00,-2.9469218,-9.068293,-1.479673
1421110002358.00,-2.9594958,-9.29058,-1.525328
1421110002359.00,-3.1780412,-9.278007,-1.4641054
1421110002364.00,-3.2903078,-9.217382,-1.3016931
1421110002381.00,-3.123854,-9.0076685,-1.1879296
1421110002401.00,-3.1639705,-9.217832,-1.4343174
1421110002421.00,-3.2913556,-9.206006,-1.377286
1421110002441.00,-3.2198043,-9.122779,-1.4822177
1421110002461.00,-3.0850844,-9.145681,-1.2775933
1421110002482.00,-3.0696666,-9.192833,-1.2376263
1421110002501.00,-3.3647032,-9.170529,-1.2957056
1421110002521.00,-3.2763867,-9.258247,-1.3826747
1421110002542.00,-3.1055918,-8.945996,-1.6613951
1421110002561.00,-2.863246,-9.19957,-1.8238074
1421110002581.00,-2.9702733,-9.186546,-1.8609302
1421110002601.00,-3.0371842,-9.262139,-1.7494121
1421110002667.00,-3.195405,-9.170829,-1.5736775
1421110002668.00,-3.2153137,-9.10302,-1.6149917
1421110002669.00,-3.1067894,-9.051976,-1.5932868
1421110002684.00,-3.1614258,-9.017697,-1.3974938
1421110002701.00,-3.3895514,-9.168584,-1.3338761
1421110002721.00,-3.3582664,-9.236243,-1.2831317
1421110002741.00,-3.3367112,-9.315578,-1.3674065
1421110002763.00,-3.2804284,-9.2118435,-1.4265335
1421110002783.00,-3.1892679,-9.2087,-1.3262421
1421110002803.00,-3.1313384,-9.049132,-1.2278966
1421110002821.00,-3.0335915,-9.134904,-1.382525
1421110002841.00,-3.0819411,-9.153166,-1.4814693
1421110002861.00,-3.300187,-9.114546,-1.4434483
1421110002883.00,-3.2211516,-9.171877,-1.5385007
1421110002903.00,-3.0557456,-9.26154,-1.4557228
1421110002926.00,-3.1440618,-9.206605,-1.4100678
1421110002983.00,-3.2087274,-9.10796,-1.2826827
1421110002984.00,-3.220553,-9.152717,-1.367107
1421110002985.00,-3.206931,-9.181308,-1.2528946
1421110003007.00,-3.214715,-9.237142,-1.1654763
1421110003022.00,-3.1841784,-9.067843,-1.3040881
1421110003044.00,-3.291655,-9.210796,-1.3870157
1421110003061.00,-3.2398627,-9.184601,-1.2485536
1421110003082.00,-3.0437706,-9.139694,-1.3708493
1421110003101.00,-3.0566437,-9.163644,-1.3632152
1421110003121.00,-3.072361,-9.2360935,-1.4712905
1421110003141.00,-3.1461575,-9.28579,-1.4515315
1421110003161.00,-3.0669723,-9.182505,-1.5485299
1421110003184.00,-3.1510973,-9.186097,-1.3813275
1421110003201.00,-3.1633718,-9.164842,-1.4769787
1421110003223.00,-3.2578254,-9.069789,-1.4458433
1421110003241.00,-3.169509,-9.164243,-1.3660593
1421110003310.00,-3.2126193,-9.191936,-1.2804374
1421110003310.00,-3.2602203,-9.149723,-1.5561639
1421110003311.00,-3.2322285,-9.164692,-1.4861096
1421110003321.00,-3.209925,-9.158405,-1.4461427
1421110003342.00,-3.1064901,-9.248668,-1.3895603
1421110003361.00,-3.138673,-9.266031,-1.4923966
1421110003381.00,-3.1980996,-9.336235,-1.4751823
1421110003401.00,-3.144511,-9.196725,-1.443149
1421110003422.00,-3.1103818,-9.076376,-1.6178356
1421110003445.00,-2.9653335,-9.140442,-1.5864011
1421110003461.00,-2.9996123,-9.133556,-1.6250207
1421110003481.00,-2.9695249,-9.226364,-1.7003142
1421110003501.00,-3.0234127,-9.251512,-1.6670833
1421110003521.00,-2.9798534,-9.28115,-1.7443227
1421110003541.00,-3.1731014,-9.264235,-1.6594491
1421110003561.00,-3.345992,-9.150921,-1.434916
1421110003581.00,-3.30857,-9.047635,-1.3657598
1421110003602.00,-3.1793885,-9.103319,-1.2841796
1421110003669.00,-3.290158,-9.273216,-1.3114228
1421110003670.00,-3.1799872,-9.149573,-1.1943663
1421110003674.00,-3.0081446,-9.066795,-1.1440709
1421110003681.00,-3.0915213,-9.267677,-1.2472064
1421110003706.00,-3.0835876,-9.16065,-1.1856843
1421110003723.00,-2.9698243,-9.239536,-1.1337423
1421110003741.00,-2.9683273,-9.320667,-1.1936178
1421110003761.00,-3.098856,-9.303903,-1.2445121
1421110003781.00,-3.1513968,-9.126671,-1.0818003
1421110003802.00,-3.2000456,-9.094189,-0.9554631
1421110003821.00,-3.1609766,-9.264983,-1.0523117
1421110003841.00,-3.107987,-9.338631,-0.96145064
1421110003861.00,-3.1972015,-9.331295,-0.89004916
1421110003881.00,-3.1117291,-9.251512,-0.8265811
1421110003902.00,-2.8861482,-9.371562,-0.83795744
1421110003957.00,-2.9014165,-9.382489,-0.89543796
1421110003957.00,-3.059338,-9.217382,-0.65773225
1421110003962.00,-3.131937,-9.183702,-0.6794371
1421110003981.00,-3.2313304,-9.243877,-0.46613067
1421110004001.00,-3.1231055,-9.230854,-0.5875282
1421110004022.00,-3.060835,-9.356593,-0.6527925
1421110004041.00,-3.1189141,-9.386231,-0.35386413
1421110004061.00,-3.172353,-9.257648,-0.31763947
1421110004082.00,-3.2165112,-9.269474,-0.30147308
1421110004101.00,-3.169958,-9.222023,-0.18755996
1421110004121.00,-3.118615,-9.249415,-0.11541
1421110004142.00,-2.9734168,-9.379645,0.030237122
1421110004161.00,-2.9325516,-9.27591,-0.2201921
1421110004181.00,-2.8644433,-9.314231,-0.16570541
1421110004201.00,-2.8071127,-9.339079,-0.016765136
1421110004273.00,-2.9268637,-9.375304,0.10927276
1421110004274.00,-2.9883857,-9.310489,-0.001347199
1421110004275.00,-3.0570927,-9.230704,-0.21420456
1421110004281.00,-3.0793962,-9.321116,-0.24219635
1421110004301.00,-2.8653414,-9.364227,-0.20028351
1421110004321.00,-2.9820986,-9.374705,-0.032332763
1421110004341.00,-2.9243188,-9.428892,0.01407074
1421110004361.00,-2.968477,-9.331594,0.20028351
1421110004381.00,-2.887196,-9.24717,0.081580356
1421110004402.00,-2.9356952,-9.408535,-0.064066775
1421110004424.00,-3.026706,-9.419762,-0.160616
1421110004444.00,-3.1751971,-9.379944,-0.1685495
1421110004461.00,-3.155139,-9.4176655,-0.16106506
1421110004482.00,-3.1567855,-9.322913,0.070503384
1421110004501.00,-3.0352383,-9.236842,0.12409195
1421110004521.00,-3.225792,-9.367221,-0.005089417
1421110004541.00,-3.01997,-9.210647,-0.009580079
1421110004562.00,-2.7087672,-9.302855,0.03966751
1421110004616.00,-2.8394454,-9.45883,-0.0398172
1421110004617.00,-2.7927425,-9.402248,0.0782872
1421110004625.00,-2.796335,-9.280551,0.008382568
1421110004641.00,-2.8981233,-9.340277,-0.027842103
1421110004661.00,-3.0532007,-9.349258,0.10867401
1421110004681.00,-2.9777577,-9.195678,0.083975375
1421110004701.00,-2.9114456,-9.350455,-0.021704864
1421110004721.00,-2.9015663,-9.207354,0.025297394
1421110004743.00,-2.9437783,-9.401799,0.012124786
1421110004762.00,-3.0894256,-9.48817,-0.042511597
1421110004781.00,-3.0659244,-9.360485,-0.019758912
1421110004802.00,-2.7686427,-9.237889,0.007185059
1421110004822.00,-2.5247996,-9.259146,-0.062869266
1421110004841.00,-2.5807831,-9.408984,-0.253423
1421110004862.00,-2.8683352,-9.5109215,-0.15881974
1421110004881.00,-3.1392717,-9.425,-0.023650818
1421110004936.00,-2.8196864,-9.244476,-0.0703537
1421110004937.00,-2.8517199,-9.349408,-0.3824547
1421110004941.00,-3.0778995,-9.267977,-0.11361374
1421110004962.00,-3.2605197,-9.3856325,0.07244934
1421110004981.00,-3.056943,-9.480386,-0.08846603
1421110005004.00,-2.7461894,-9.398655,-0.28186387
1421110005022.00,-2.870431,-9.376351,0.033081207
1421110005043.00,-3.015629,-9.334739,0.14085709
1421110005062.00,-3.0758038,-9.370963,0.00239502
1421110005082.00,-3.0084438,-9.19927,-0.2880011
1421110005104.00,-2.7556198,-9.355096,-0.3291655
1421110005121.00,-2.5343797,-9.410331,-0.39338195
1421110005141.00,-2.4174728,-9.491463,-0.183219
1421110005161.00,-2.425107,-9.50254,0.065264285
1421110005182.00,-2.6098228,-9.323063,-0.16705261
1421110005207.00,-2.7741811,-9.366622,-0.3026706
1421110005284.00,-2.8264225,-9.344618,-0.29249176
1421110005285.00,-2.877616,-9.374705,-0.17708176
1421110005286.00,-2.8039691,-9.248069,-0.1977388
1421110005289.00,-3.064278,-9.237441,-0.09430389
1421110005306.00,-3.0126352,-9.338481,0.050894164
1421110005322.00,-3.0898745,-9.420361,0.061072998
1421110005341.00,-3.1769934,-9.351054,-0.002245331
1421110005369.00,-3.106939,-9.25226,-0.21121079
1421110005382.00,-3.074756,-9.3292,-0.17693207
1421110005407.00,-2.884352,-9.385333,-0.25297394
1421110005425.00,-2.8758197,-9.318722,-0.15058686
1421110005444.00,-2.7144554,-9.510773,0.063767396
1421110005462.00,-2.7768755,-9.407187,-0.056732025
1421110005482.00,-2.8870463,-9.36752,-0.13756393
1421110005502.00,-3.018922,-9.249865,-0.038170625
1421110005522.00,-2.9196784,-9.352701,-0.15612534
1421110005595.00,-2.728077,-9.3872795,-0.17393829
1421110005596.00,-2.754572,-9.372909,-0.20642075
1421110005597.00,-2.7907965,-9.337283,0.039218444
1421110005602.00,-2.755919,-9.462422,0.032632142
1421110005621.00,-2.7651997,-9.467213,-0.12858261
1421110005642.00,-2.7373576,-9.469159,-0.26360184
1421110005662.00,-2.6988876,-9.275461,-0.27827132
1421110005682.00,-2.6951454,-9.304951,-0.20941453
1421110005702.00,-2.7997777,-9.287736,-0.19309846
1421110005722.00,-2.8315117,-9.349109,-0.09639954
1421110005741.00,-2.7672954,-9.267079,-0.17498611
1421110005762.00,-2.9282107,-9.366772,-0.26524842
1421110005782.00,-3.049309,-9.339977,-0.17408799
1421110005805.00,-3.0427227,-9.282348,0.1486409
1421110005825.00,-3.1052926,-9.336984,0.042062532
1421110005841.00,-2.887196,-9.556277,-0.060324553
1421110005861.00,-2.9318032,-9.401051,0.0490979
1421110005922.00,-2.8131,-9.421557,-0.055384826
1421110005923.00,-2.6750872,-9.366921,0.002844086
1421110005924.00,-2.7232869,-9.388776,0.121098176
1421110005941.00,-2.737657,-9.517359,0.19474502
1421110005962.00,-2.7647507,-9.44416,0.027093658
1421110005981.00,-2.792443,-9.400302,-0.16825013
1421110006011.00,-2.9075537,-9.300759,-0.19474502
1421110006022.00,-3.1554382,-9.22801,-0.14310242
1421110006042.00,-3.026107,-9.2566,-0.1405577
1421110006065.00,-2.9509635,-9.305698,-0.31000534
1421110006083.00,-2.9729676,-9.485175,-0.38305342
1421110006102.00,-2.771337,-9.492959,-0.33605117
1421110006122.00,-2.7741811,-9.399853,-0.3132985
1421110006142.00,-2.5180635,-9.376202,-0.25162673
1421110006161.00,-2.532284,-9.495055,-0.16645385
1421110006182.00,-2.6159601,-9.372011,0.008681946
1421110006201.00,-2.6014402,-9.334589,-0.03592529
1421110006452.00,-2.5465045,-9.383238,-0.17438737
1421110006453.00,-2.7421477,-9.461076,-0.4326004
1421110006454.00,-2.966531,-9.260792,0.010927277
1421110006455.00,-2.910847,-9.291029,0.08173004
1421110006456.00,-2.8331585,-9.418414,0.09580078
1421110006457.00,-2.977608,-9.225166,-0.07319778
1421110006457.00,-3.1374755,-9.069789,0.11391312
1421110006459.00,-3.033442,-9.2311535,-0.05149292
1421110006461.00,-2.927163,-9.3292,-0.25282425
1421110006462.00,-2.7906468,-9.406738,-0.15492782
1421110006463.00,-2.9277618,-9.3679695,-0.16929795
1421110006464.00,-2.70248,-9.359736,-0.4022136
1421110006464.00,-2.787204,-9.393267,-0.74799454
1421110006482.00,-2.598596,-9.393866,-0.69754946
1421110006502.00,-2.6527834,-9.342223,-0.5379813
1421110006566.00,-2.8912377,-9.395661,-0.44262955
1421110006567.00,-2.7253826,-9.4297905,-0.4631369
1421110006568.00,-2.829566,-9.481583,-0.77957886
1421110006591.00,-2.6690996,-9.489217,-0.9357042
1421110006602.00,-2.6541307,-9.564361,-0.7884105
1421110006622.00,-2.7382557,-9.475595,-0.45804748
1421110006642.00,-2.7967842,-9.337732,-0.33455428
1421110006662.00,-2.8714788,-9.159602,-0.27258316
1421110006682.00,-2.7258315,-9.402846,-0.1791774
1421110006706.00,-2.8292665,-9.399254,-0.11391312
1421110006722.00,-2.9470716,-9.218281,0.02933899
1421110006743.00,-2.957849,-9.280401,0.008083191
1421110006762.00,-2.9985645,-9.156459,-0.031434633
1421110006782.00,-2.930007,-9.253307,-0.019459534
1421110006802.00,-2.898273,-9.26693,0.1552272
1421110006822.00,-3.1443613,-9.2046585,0.011825409
1421110006842.00,-3.2864158,-9.382789,0.024249572
1421110006905.00,-3.3678465,-9.27606,0.13681549
1421110006906.00,-3.493136,-9.379346,0.16765137
1421110006907.00,-3.279081,-9.198522,0.27033782
1421110006925.00,-3.3133597,-9.2747135,0.21674927
1421110006942.00,-3.2698004,-9.456884,0.20402573
1421110006961.00,-3.234474,-9.356593,0.2749782
1421110006982.00,-3.123854,-9.206605,0.18561402
1421110007002.00,-2.9440777,-9.292826,0.1405577
1421110007022.00,-2.9327013,-9.368119,0.16510665
1421110007042.00,-2.775229,-9.378298,0.10717712
1421110007062.00,-2.8767178,-9.611064,0.13876145
1421110007082.00,-2.8479776,-9.554332,0.060474243
1421110007102.00,-2.880011,-9.435779,0.069305874
1421110007122.00,-2.8370504,-9.179062,0.103734285
1421110007143.00,-2.8951294,-9.324559,0.14639556
1421110007162.00,-2.829566,-9.431887,0.0889151
1421110007182.00,-2.8077114,-9.389075,0.20297791
1421110007253.00,-2.8187883,-9.236692,0.19983444
1421110007255.00,-2.9015663,-9.295969,0.17289047
1421110007255.00,-2.9627888,-9.36273,0.101339266
1421110007261.00,-2.782414,-9.509874,0.05493576
1421110007282.00,-2.873275,-9.392518,0.2004332
1421110007303.00,-2.7319689,-9.353001,0.4261638
1421110007323.00,-2.8047175,-9.409433,0.31374756
1421110007342.00,-2.697241,-9.406888,0.25821304
1421110007364.00,-2.761757,-9.431138,0.4260141
1421110007383.00,-2.775678,-9.3277025,0.5533992
1421110007402.00,-2.937192,-9.397159,0.5640271
1421110007422.00,-3.0090427,-9.460028,0.72239774
1421110007444.00,-3.0964608,-9.326356,0.8878038
1421110007462.00,-3.2057335,-9.233997,0.8991802
1421110007482.00,-3.0591884,-9.30031,1.043031
1421110007556.00,-2.9946725,-9.356294,0.96923447
1421110007557.00,-2.9433293,-9.402846,1.0527607
1421110007559.00,-2.6948462,-9.166637,0.9491762
1421110007562.00,-2.0589683,-9.052276,0.7842192
1421110007582.00,-1.2820839,-9.512868,0.55654263
1421110007602.00,-1.3862672,-9.744586,0.27422974
1421110007621.00,-2.2243743,-9.726773,0.5788463
1421110007642.00,-2.853965,-9.527837,0.9428893
1421110007662.00,-3.1606774,-9.255254,0.83975375
1421110007683.00,-2.966082,-9.254355,0.8378078
1421110007702.00,-2.7999275,-9.201815,0.76356214
1421110007722.00,-2.812202,-9.33429,0.60459274
1421110007742.00,-2.4700136,-9.476494,0.53962785
1421110007762.00,-2.2731729,-9.297765,0.7586224
1421110007781.00,-2.1871018,-9.396111,0.91235274
1421110007816.00,-2.408342,-9.499695,0.8184979
1421110007822.00,-2.5036936,-9.640852,0.6047424
1421110007904.00,-2.506388,-9.5455,0.19160156
1421110007908.00,-2.7334657,-9.298364,0.32617173
1421110007911.00,-2.916086,-9.47784,0.5037025
1421110007912.00,-2.7777736,-9.515412,0.66536635
1421110007926.00,-2.7018814,-9.600586,0.70548296
1421110007942.00,-2.9056077,-9.477093,0.9144484
1421110007962.00,-2.859803,-9.192534,1.2656181
1421110007983.00,-2.4191194,-9.221574,1.0560539
1421110008006.00,-2.307302,-9.364078,0.80487627
1421110008022.00,-2.2017715,-9.437275,0.5840854
1421110008043.00,-2.2456303,-9.4507475,0.7991881
1421110008062.00,-2.205364,-9.453292,0.8020322
1421110008082.00,-2.6216483,-9.525143,0.7430548
1421110008104.00,-2.9298573,-9.366472,0.71820647
1421110008122.00,-3.112178,-9.386531,0.64096713
1421110008177.00,-3.112777,-9.341325,0.7095245
1421110008178.00,-3.0572424,-9.4805355,0.7203021
1421110008182.00,-2.9044104,-9.475745,0.8069719
1421110008202.00,-2.6632617,-9.265432,0.67614394
1421110008222.00,-2.5999434,-9.552086,0.6601273
1421110008242.00,-2.5119264,-9.44446,0.82747924
1421110008266.00,-2.51507,-9.518406,0.9494755
1421110008285.00,-2.7232869,-9.4226055,0.84843564
1421110008304.00,-2.7783723,-9.349109,0.7825726
1421110008324.00,-2.6590705,-9.336684,0.9253757
1421110008342.00,-2.5753944,-9.455836,0.9611513
1421110008362.00,-2.7080185,-9.404793,0.91355026
1421110008382.00,-2.7273285,-9.421857,0.6950047
1421110008403.00,-2.743495,-9.251362,0.58872575
1421110008426.00,-2.8714788,-9.351953,0.6994954
1421110008442.00,-2.8416908,-9.321715,0.84963316
1421110008462.00,-2.9124935,-9.352701,0.82867676
1421110008546.00,-2.6544302,-9.53577,0.75368273
1421110008547.00,-2.6484425,-9.466464,0.5957611
1421110008548.00,-2.7731333,-9.448502,0.7864645
1421110008549.00,-2.670746,-9.385183,0.6899153
1421110008568.00,-2.5970993,-9.318123,0.63902116
1421110008583.00,-2.5628207,-9.282946,0.75428146
1421110008602.00,-2.5508454,-9.4772415,0.8282277
1421110008622.00,-2.5634193,-9.373208,0.80876815
1421110008645.00,-2.5652156,-9.42051,0.83975375
1421110008663.00,-2.743944,-9.464968,0.7370673
1421110008683.00,-2.76505,-9.405242,0.78856015
1421110008702.00,-2.7017317,-9.350306,0.80652285
1421110008722.00,-2.761757,-9.301806,0.84708846
1421110008742.00,-2.7662475,-9.357192,0.8228389
1421110008762.00,-2.839146,-9.460028,0.746797
1421110008784.00,-2.704426,-9.42994,0.62929136
1421110008804.00,-2.7566674,-9.356144,0.61252624
1421110008872.00,-2.7740314,-9.219178,0.68752027
1421110008873.00,-2.4625292,-9.275461,0.5510042
1421110008874.00,-2.2110522,-9.356743,0.5876779
1421110008882.00,-2.1327648,-9.619297,0.6421646
1421110008902.00,-2.3790028,-9.569151,0.48199767
1421110008923.00,-2.262096,-9.530231,0.28351045
1421110008942.00,-2.4701633,-9.378298,0.32048357
1421110008962.00,-2.7273285,-9.472302,0.35476226
1421110008984.00,-3.147355,-9.543405,0.46283752
1421110009007.00,-3.146906,-9.4032955,0.51657575
1421110009029.00,-3.0190718,-9.244476,0.6423143
1421110009042.00,-2.9166846,-9.263487,0.6939569
1421110009062.00,-2.6551785,-9.276809,0.65099627
1421110009083.00,-2.565515,-9.370065,0.47810578
1421110009102.00,-2.5896149,-9.288485,0.6104306
1421110009122.00,-2.5518932,-9.354647,0.7060817
1421110009185.00,-2.556384,-9.485325,0.50235534
1421110009186.00,-2.3903792,-9.566307,0.51178575
1421110009187.00,-2.725083,-9.47784,0.40924895
1421110009202.00,-2.8744726,-9.6477375,0.31000534
1421110009223.00,-2.8618987,-9.463021,0.41059616
1421110009242.00,-2.6830206,-9.526789,0.39472917
1421110009262.00,-2.8020232,-9.427546,0.44637176
1421110009283.00,-2.7051744,-9.39641,0.5309459
1421110009306.00,-2.7134075,-9.581276,0.46418473
1421110009325.00,-2.7159522,-9.5335245,0.4074527
1421110009342.00,-2.7521768,-9.414971,0.5349875
1421110009362.00,-2.7836115,-9.42485,0.5875282
1421110009382.00,-2.7027795,-9.433832,0.36808455
1421110009402.00,-2.6668541,-9.432335,0.33545244
1421110009424.00,-2.571353,-9.571995,0.2694397
1421110009448.00,-2.5959017,-9.055718,0.26973906
1421110009513.00,-2.6168582,-9.11754,0.30296996
1421110009514.00,-2.614463,-9.269624,0.3595523
1421110009515.00,-2.4460633,-9.214988,0.22213806
1421110009522.00,-2.3879843,-9.328451,0.20028351
1421110009542.00,-2.203867,-9.414971,0.082628176
1421110009563.00,-2.4074438,-9.376801,-0.26794282
1421110009584.00,-2.5167165,-9.345666,-0.21240829
1421110009603.00,-2.3968158,-9.446107,0.03397934
1421110009626.00,-2.4656725,-9.445358,0.028889922
1421110009642.00,-2.5740473,-9.582024,0.030536499
1421110009663.00,-2.768493,-9.580527,-0.24863297
1421110009682.00,-2.7635531,-9.423504,-0.18785934
1421110009702.00,-2.650089,-9.501641,-0.08113129
1421110009722.00,-2.6623635,-9.582772,-0.09250763
1421110009745.00,-2.6758356,-9.75716,-0.019309845
1421110009762.00,-2.6954448,-9.401799,0.041613463
1421110009840.00,-3.0311966,-9.261391,0.22977218
1421110009841.00,-3.099305,-9.229657,0.22677842
1421110009842.00,-2.8496242,-9.270822,0.23935227
1421110009843.00,-2.6777816,-9.355395,0.18097366
1421110009863.00,-2.5839267,-9.166489,-0.043709107
1421110009883.00,-2.6201513,-9.178014,-0.2402504
1421110009902.00,-2.750081,-9.271719,-0.24354355
1421110009923.00,-2.873275,-9.359287,-0.22632934
1421110009958.00,-2.6704469,-9.307944,-0.36164796
1421110009965.00,-2.7051744,-9.258098,-0.4260141
1421110009984.00,-2.8265722,-9.257648,-0.35521135
1421110010005.00,-2.9313543,-9.31498,-0.22782624
1421110010024.00,-2.9508138,-9.41587,-0.28246263
1421110010044.00,-2.793042,-9.54535,-0.43334883
1421110010062.00,-2.78915,-9.470206,-0.7117699
1421110010082.00,-2.8418403,-9.45434,-0.8827144
1421110010153.00,-2.893483,-9.467213,-0.66027695
1421110010154.00,-2.7842102,-9.490714,-0.43379793
1421110010155.00,-2.69769,-9.495654,-0.3318599
1421110010162.00,-2.5667124,-9.551937,-0.1910028
1421110010183.00,-2.569856,-9.476644,-0.36808455
1421110010203.00,-2.5601263,-9.534123,-0.18082398
1421110010223.00,-2.403402,-9.338929,-0.005688171
1421110010243.00,-2.5162673,-9.367371,0.09864487
1421110010263.00,-2.595752,-9.3613825,0.13950989
1421110010283.00,-2.7996283,-9.437275,0.2296225
1421110010302.00,-2.670746,-9.459129,0.15432908
1421110010323.00,-2.822231,-9.399853,-0.025447082
1421110010343.00,-2.9066556,-9.434431,-0.030536499
1421110010363.00,-2.9576995,-9.352701,0.011975098
1421110010383.00,-3.0308971,-9.306297,-0.007933502
1421110010402.00,-3.0472133,-9.339079,-0.102836154
1421110010422.00,-2.880011,-9.323213,-0.1567241
1421110010488.00,-2.5304878,-9.368419,-0.16286133
1421110010494.00,-2.486629,-9.340876,-0.20267853
1421110010495.00,-2.6012907,-9.448651,0.005089417
1421110010502.00,-2.5002508,-9.358988,0.041314088
1421110010522.00,-2.3743625,-9.48323,-0.3215314
1421110010542.00,-2.3249652,-9.430389,-0.37886214
1421110010563.00,-2.4843836,-9.510324,-0.22722748
1421110010582.00,-2.7009833,-9.422905,-0.1857637
1421110010603.00,-2.8761191,-9.490564,-0.27378067
1421110010623.00,-3.1067894,-9.415121,-0.20252883
1421110010642.00,-3.045866,-9.267677,-0.3384462
1421110010663.00,-2.857857,-9.227411,-0.25956023
1421110010683.00,-3.0807436,-9.233699,-0.27422974
1421110010702.00,-3.2314801,-9.219478,-0.45744872
1421110010723.00,-3.2578254,-9.312584,-0.42766067
1421110010742.00,-3.0205686,-9.495205,-0.38993913
1421110010764.00,-2.7026298,-9.493408,-0.4565506
1421110010786.00,-2.7053242,-9.308693,-0.27138564
1421110010876.00,-2.5036936,-9.432335,-0.14115646
1421110010878.00,-2.5773404,-9.369017,-0.048648834
1421110010880.00,-2.5143213,-9.552385,-0.002095642
1421110010881.00,-2.424508,-9.593849,-0.17244141
1421110010882.00,-2.34188,-9.472752,-0.09265732
1421110010904.00,-2.325115,-9.357042,0.020956421
1421110010924.00,-2.4771986,-9.291778,0.0755928
1421110010944.00,-2.4718099,-9.349258,0.064066775
1421110010964.00,-2.7104137,-9.338779,0.34518218
1421110010983.00,-2.6779313,-9.136102,0.1936972
1421110011002.00,-2.6544302,-9.228459,0.09400452
1421110011024.00,-2.696343,-9.41078,-0.16151413
1421110011042.00,-2.8755202,-9.399254,-0.3237767
1421110011063.00,-2.906955,-9.428742,-0.40535706
1421110011083.00,-2.9521608,-9.37725,-0.58109164
1421110011202.00,-3.131488,-9.411079,-0.6036946
1421110011203.00,-3.2174094,-9.330547,-0.53019744
1421110011204.00,-3.2413595,-9.391769,-0.33470398
1421110011205.00,-3.1246023,-9.2360935,-0.3582051
1421110011206.00,-3.1129267,-9.2874365,-0.3239264
1421110011206.00,-2.890489,-9.427995,-0.11136841
1421110011223.00,-2.697241,-9.247919,-0.11765534
1421110011243.00,-2.6240432,-9.407786,-0.1128653
1421110011263.00,-2.3806493,-9.418564,-0.1273851
1421110011283.00,-2.371219,-9.428892,0.020357667
1421110011304.00,-2.5593777,-9.321715,-0.14175522
1421110011323.00,-2.7081683,-9.377699,-0.12499008
1421110011342.00,-2.895878,-9.168734,-0.19429596
1421110011362.00,-3.086282,-9.283994,-0.22228774
1421110011385.00,-3.2196548,-9.388327,-0.32587233
1421110011402.00,-3.216661,-9.483978,-0.55893767
1421110011606.00,-3.2326777,-9.372459,-0.4923262
1421110011613.00,-3.1931598,-9.304202,-0.2863545
1421110011613.00,-3.1639705,-9.33384,-0.25132737
1421110011614.00,-2.911296,-9.106762,-0.21659958
1421110011615.00,-2.6473947,-9.045989,-0.33530274
1421110011616.00,-2.546205,-9.276809,-0.19684067
1421110011617.00,-2.8051667,-9.491762,-0.18022522
1421110011618.00,-2.8509715,-9.220077,-0.3026706
1421110011620.00,-2.9877868,-9.112151,-0.47421387
1421110011622.00,-3.2947984,-9.430689,-0.6623726
1421110011622.00,-3.235821,-9.434581,-0.7586224
1421110011643.00,-3.1349308,-9.438173,-0.6502478
1421110011664.00,-2.8544142,-9.111702,-0.55265075
1421110011684.00,-2.9759614,-9.291029,-0.4246669
1421110011703.00,-3.0793962,-9.4049425,-0.46508285
1421110011723.00,-3.0539494,-9.602681,-0.75428146
1421110011811.00,-2.8126512,-9.360635,-0.7966434
1421110011812.00,-2.650089,-9.325308,-0.76371187
1421110011816.00,-2.8738737,-9.303603,-0.5059479
1421110011817.00,-3.0981073,-9.293275,-0.32347733
1421110011826.00,-2.8851004,-9.223669,-0.24788453
1421110011846.00,-2.8178902,-9.167236,-0.59246796
1421110011863.00,-3.0096414,-9.188792,-0.60713744
1421110011884.00,-3.5726206,-9.299262,-0.49307466
1421110011903.00,-3.623515,-9.365574,-0.50639695
1421110011923.00,-3.1229558,-9.091045,-0.7165599
1421110011943.00,-2.859354,-9.143736,-0.8041278
1421110011963.00,-3.1841784,-9.366622,-0.72898406
1421110011983.00,-3.2696507,-9.278306,-0.7325766
1421110012003.00,-3.0600865,-9.141789,-0.72703815
1421110012023.00,-2.789599,-9.103319,-0.7887099
1421110012043.00,-2.7845097,-9.195678,-0.945434
1421110012063.00,-2.9536579,-9.490714,-0.8360115
1421110012195.00,-3.1201117,-9.253457,-0.69605255
1421110012196.00,-3.0142817,-9.1500225,-0.6703061
1421110012197.00,-2.9783564,-9.236692,-0.739612
1421110012198.00,-3.0720615,-9.255553,-0.8222401
1421110012199.00,-3.0532007,-9.198821,-0.8520282
1421110012201.00,-3.1340327,-9.288335,-0.5456154
1421110012204.00,-3.0311966,-9.200019,-0.43873763
1421110012286.00,-3.026107,-9.329948,-0.56851774
1421110012287.00,-2.931953,-9.372161,-0.8589139
1421110012288.00,-2.9782069,-9.162597,-0.6221063
1421110012289.00,-3.1549892,-9.249865,-0.5373825
1421110012303.00,-3.0711634,-9.406738,-0.7246431
1421110012346.00,-3.124752,-9.297167,-0.8316705
1421110012347.00,-3.1638207,-9.281449,-0.7458989
1421110012370.00,-3.2950978,-9.144484,-0.48933244
1421110012477.00,-3.5042129,-9.284593,-0.42706192
1421110012477.00,-3.6398308,-9.241333,-0.3677852
1421110012478.00,-3.531157,-9.222322,-0.3305127
1421110012481.00,-3.488795,-9.157507,-0.54441786
1421110012482.00,-3.3932936,-9.196426,-0.56567365
1421110012483.00,-3.3715887,-9.355395,-0.41897872
1421110012507.00,-3.265609,-9.179811,-0.33066237
1421110012524.00,-3.2317796,-9.108858,-0.27797195
1421110012546.00,-3.0527518,-9.273965,-0.46059218
1421110012564.00,-3.115172,-9.365125,-0.46687913
1421110012583.00,-3.0090427,-9.367071,-0.48349458
1421110012603.00,-3.042573,-9.3172245,-0.6146219
1421110012623.00,-3.2621663,-9.177416,-0.5084926
1421110012643.00,-3.2563283,-9.290131,-0.43020537
1421110012663.00,-3.3030312,-9.324559,-0.33650026
1421110012683.00,-3.267555,-9.229957,-0.44637176
1421110012703.00,-3.2727942,-9.304651,-0.4803511
1421110012723.00,-3.1739995,-9.462124,-0.5888754
1421110012787.00,-3.1681619,-9.219328,-0.569865
1421110012788.00,-3.1383736,-9.227411,-0.45819718
1421110012789.00,-3.2022908,-9.277557,-0.594863
1421110012806.00,-2.99108,-9.182505,-0.558788
1421110012824.00,-3.011288,-9.328751,-0.46643007
1421110012843.00,-3.016078,-9.350306,-0.62285477
1421110012863.00,-3.0491593,-9.417217,-0.6421646
1421110012883.00,-3.1229558,-9.19448,-0.6116281
1421110012908.00,-3.0961616,-9.267529,-0.59381515
1421110012923.00,-3.242557,-9.306447,-0.48469207
1421110012943.00,-3.3184493,-9.236243,-0.49127838
1421110012965.00,-3.2910562,-9.298064,-0.38934037
1421110012983.00,-3.1847773,-9.231603,-0.4830455
1421110013004.00,-3.1094837,-9.278904,-0.40640488
1421110013023.00,-3.1978002,-9.1886425,-0.3450325
1421110013088.00,-3.2889605,-9.233699,-0.5312453
1421110013089.00,-3.2891102,-9.254056,-0.572709
1421110013090.00,-3.2022908,-9.387728,-0.57705003
1421110013104.00,-3.2605197,-9.186846,-0.4658313
1421110013123.00,-3.1946566,-9.2449255,-0.48334488
1421110013147.00,-3.2894096,-9.313333,-0.5920189
1421110013174.00,-3.1519954,-9.22801,-0.5626799
1421110013183.00,-3.219954,-9.243578,-0.39907014
1421110013203.00,-3.1680121,-9.245224,-0.5400769
1421110013225.00,-3.0070968,-9.371412,-0.57914567
1421110013248.00,-3.2891102,-9.334739,-0.56851774
1421110013265.00,-3.1412177,-9.346863,-0.5822891
1421110013283.00,-3.184328,-9.231603,-0.55639297
1421110013303.00,-3.087779,-9.304502,-0.515977
1421110013323.00,-3.146457,-9.264983,-0.52061737
1421110013349.00,-3.140619,-9.216484,-0.3968248
1421110013413.00,-3.1120286,-9.261091,-0.5773494
1421110013414.00,-3.1329849,-9.085207,-0.47151947
1421110013415.00,-3.2850688,-9.169183,-0.52256334
1421110013423.00,-3.1588812,-9.206605,-0.6493497
1421110013443.00,-3.2201037,-9.267677,-0.5661228
1421110013463.00,-3.2042367,-9.315728,-0.7367679
1421110013485.00,-3.276237,-9.209599,-0.5423222
1421110013504.00,-3.1846275,-9.244327,-0.48783553
1421110013529.00,-3.1211596,-9.243728,-0.5840854
1421110013547.00,-3.117567,-9.376202,-0.5511539
1421110013564.00,-3.1768436,-9.244776,-0.56627244
1421110013583.00,-3.1672637,-9.203012,-0.5379813
1421110013605.00,-3.1713052,-9.143886,-0.49322432
1421110013624.00,-3.2783327,-9.3116865,-0.43215135
1421110013643.00,-3.2388148,-9.275611,-0.3875441
1421110013663.00,-3.1614258,-9.159004,-0.43035507
1421110013729.00,-3.1808853,-9.389375,-0.5242099
1421110013730.00,-3.1717544,-9.358389,-0.5760022
1421110013731.00,-3.249293,-9.430389,-0.5303471
1421110013744.00,-3.2269895,-9.26199,-0.54636383
1421110013766.00,-3.0061986,-9.328451,-0.4324507
1421110013792.00,-2.9981153,-9.351204,-0.45969406
1421110013803.00,-3.1427147,-9.186696,-0.5287006
1421110013825.00,-3.160378,-9.201066,-0.48918274
1421110013844.00,-3.1650183,-9.309441,-0.53648436
1421110013864.00,-3.2061827,-9.302855,-0.5185217
1421110013888.00,-3.121459,-9.400152,-0.6572832
1421110013903.00,-3.25558,-9.272767,-0.5204677
1421110013925.00,-3.1768436,-9.235644,-0.55639297
1421110013943.00,-3.17864,-9.316925,-0.4604425
1421110013963.00,-3.054548,-9.274564,-0.5170248
1421110013984.00,-3.1003528,-9.29043,-0.6053412
1421110014003.00,-3.1329849,-9.2979145,-0.5885761
1421110014096.00,-3.196004,-9.144933,-0.47226793
1421110014097.00,-3.2126193,-9.27636,-0.5379813
1421110014098.00,-3.084935,-9.248966,-0.58184004
1421110014099.00,-3.1184652,-9.411079,-0.75682616
1421110014103.00,-3.2037878,-9.267677,-0.53828067
1421110014123.00,-3.162773,-9.331894,-0.47586045
1421110014143.00,-3.0939162,-9.184601,-0.5683681
1421110014163.00,-3.1885195,-9.274564,-0.57794815
1421110014183.00,-3.1018496,-9.176817,-0.4869374
1421110014203.00,-3.194507,-9.182804,-0.47870454
1421110014223.00,-3.2928524,-9.229657,-0.54890853
1421110014243.00,-3.1780412,-9.2625885,-0.50100815
1421110014263.00,-3.1043944,-9.32411,-0.48214737
1421110014283.00,-3.1677127,-9.190738,-0.4857399
1421110014303.00,-3.1588812,-9.170529,-0.5309459
1421110014324.00,-3.1111305,-9.31962,-0.49187714
1421110014389.00,-3.1756463,-9.285641,-0.5031038
1421110014390.00,-3.1243029,-9.294023,-0.5825885
1421110014391.00,-3.0922697,-9.274115,-0.5445676
1421110014403.00,-3.214715,-9.182505,-0.4816983
1421110014424.00,-3.0874796,-9.236692,-0.5743556
1421110014443.00,-3.117118,-9.314231,-0.6502478
1421110014463.00,-3.1951058,-9.321116,-0.5090913
1421110014484.00,-3.2659085,-9.336085,-0.529449
1421110014504.00,-3.2163615,-9.208101,-0.51208514
1421110014523.00,-3.2554302,-9.238189,-0.4899312
1421110014543.00,-3.1948063,-9.235944,-0.58213943
1421110014564.00,-3.2210019,-9.141041,-0.5278024
1421110014583.00,-3.134482,-9.211246,-0.46223876
1421110014603.00,-3.0780492,-9.219927,-0.54636383
1421110014623.00,-3.1991472,-9.342373,-0.5493576
1421110014647.00,-3.059338,-9.236992,-0.6557863
1421110014666.00,-3.1717544,-9.110206,-0.51657575
1421110014685.00,-3.1340327,-9.222322,-0.5590874
1421110014737.00,-3.1337333,-9.247919,-0.5876779
1421110014738.00,-3.1434631,-9.187145,-0.4899312
1421110014743.00,-3.0978081,-9.254505,-0.5261558
1421110014763.00,-3.163222,-9.301806,-0.45041335
1421110014783.00,-3.121459,-9.204209,-0.51567763
1421110014803.00,-3.1629226,-9.171128,-0.50070876
1421110014823.00,-3.1870224,-9.260492,-0.6821315
1421110014843.00,-3.1737003,-9.195378,-0.4923262
1421110014868.00,-3.3135095,-9.166339,-0.6056406
1421110014884.00,-3.1204112,-9.214539,-0.5188211
1421110014903.00,-3.2154634,-9.18924,-0.48768586
1421110014924.00,-3.2037878,-9.221724,-0.45295808
1421110014944.00,-3.1880703,-9.259894,-0.48663804
1421110014963.00,-3.108885,-9.275311,-0.5162764
1421110014985.00,-3.069517,-9.429491,-0.45610154
1421110015005.00,-3.1168184,-9.376202,-0.57225996
1421110015087.00,-3.128045,-9.259445,-0.53932846
1421110015088.00,-3.1970518,-9.146879,-0.4152365
1421110015088.00,-3.0520034,-9.239237,-0.3797603
1421110015089.00,-3.1329849,-9.252708,-0.5673202
1421110015108.00,-3.1734009,-9.29552,-0.38380188
1421110015123.00,-3.243605,-9.361832,-0.38544846
1421110015143.00,-3.2236962,-9.250164,-0.4378395
1421110015163.00,-3.218008,-9.261091,-0.42706192
1421110015184.00,-3.1352303,-9.222322,-0.40266266
1421110015203.00,-3.0912218,-9.283844,-0.50265473
1421110015223.00,-3.0780492,-9.263187,-0.39218444
1421110015243.00,-3.1654673,-9.245374,-0.6192622
1421110015264.00,-3.0711634,-9.364676,-0.61626846
1421110015284.00,-3.098257,-9.1483755,-0.60010207
1421110015303.00,-3.2395632,-9.293425,-0.48349458
1421110015515.00,-3.213218,-9.239836,-0.504451
1421110015516.00,-3.1070888,-9.291328,-0.64605653
1421110015517.00,-3.179538,-9.225765,-0.44921586
1421110015518.00,-3.182083,-9.200617,-0.39712417
1421110015519.00,-3.3148568,-9.119336,-0.32976425
1421110015521.00,-3.2879128,-9.081165,-0.42152345
1421110015527.00,-3.2852182,-9.235644,-0.45550278
1421110015528.00,-3.270998,-9.221724,-0.54621416
1421110015529.00,-3.0710137,-9.332493,-0.46418473
1421110015530.00,-3.0566437,-9.233849,-0.468376
1421110015531.00,-3.0859826,-9.331445,-0.6249504
1421110015544.00,-3.194058,-9.307495,-0.5822891
1421110015567.00,-3.0692174,-9.096583,-0.48005173
1421110015585.00,-3.3019836,-9.21364,-0.47705796
1421110015605.00,-3.2540832,-9.36782,-0.49951127
1421110015624.00,-3.050656,-9.215586,-0.50040936
1421110015742.00,-3.1955547,-9.161099,-0.45535308
1421110015743.00,-3.144511,-9.28609,-0.4737648
1421110015744.00,-3.0361364,-9.313782,-0.46283752
1421110015745.00,-3.038681,-9.263038,-0.43589357
1421110015747.00,-3.1689103,-9.168584,-0.49936157
1421110015748.00,-3.1879206,-9.29058,-0.5706134
1421110015764.00,-3.1114297,-9.2625885,-0.59441394
1421110015783.00,-3.0759535,-9.346264,-0.5860313
1421110015804.00,-3.1350806,-9.313931,-0.35311568
1421110015826.00,-3.1915133,-9.221873,-0.42317
1421110015843.00,-3.2253428,-9.232651,-0.48349458
1421110015864.00,-3.2994387,-9.294921,-0.44143203
1421110015884.00,-3.2102244,-9.214389,-0.51462984
1421110015903.00,-3.2389646,-9.297017,-0.4447252
1421110015924.00,-3.066523,-9.152567,-0.597258
1421110015945.00,-3.0591884,-9.263637,-0.55938673
1421110015964.00,-3.0202694,-9.330847,-0.53364027
1421110016159.00,-3.0573921,-9.236842,-0.4897815
1421110016160.00,-3.2187567,-9.318572,-0.50130755
1421110016161.00,-3.257526,-9.282198,-0.5204677
1421110016162.00,-3.3188982,-9.326955,-0.55654263
1421110016163.00,-3.2581246,-9.347761,-0.55324954
1421110016164.00,-3.2271392,-9.285341,-0.36553985
1421110016165.00,-3.0819411,-9.236692,-0.42781037
1421110016167.00,-3.2986903,-9.323512,-0.45625123
1421110016168.00,-3.241659,-9.295071,-0.39622605
1421110016169.00,-3.156486,-9.260044,-0.52735335
1421110016184.00,-3.093018,-9.167985,-0.51283354
1421110016204.00,-3.1732512,-9.2681265,-0.48484176
1421110016224.00,-3.2706985,-9.302855,-0.40236327
1421110016246.00,-3.2606695,-9.265133,-0.5287006
1421110016265.00,-3.2433054,-9.207054,-0.4445755
1421110016285.00,-3.1707065,-9.166787,-0.49202684
1421110016305.00,-3.2094758,-9.1572075,-0.6138734
1421110016467.00,-3.1660662,-9.299112,-0.4921765
1421110016468.00,-3.1807356,-9.195378,-0.5783972
1421110016468.00,-3.1909144,-9.282048,-0.57570285
1421110016469.00,-3.1966026,-9.219178,-0.53423905
1421110016470.00,-3.150648,-9.200767,-0.3528163
1421110016471.00,-3.1181657,-9.196725,-0.5167255
1421110016472.00,-3.1190639,-9.187744,-0.574655
1421110016473.00,-3.204087,-9.170231,-0.6038443
1421110016487.00,-3.1602283,-9.176068,-0.5005591
1421110016504.00,-3.0591884,-9.301956,-0.5275031
1421110016523.00,-3.1831307,-9.316925,-0.5812413
1421110016544.00,-3.2013927,-9.2360935,-0.54187316
1421110016564.00,-3.2207024,-9.289533,-0.56462586
1421110016584.00,-3.1958542,-9.168734,-0.5893245
1421110016658.00,-3.2379167,-9.188193,-0.5005591
1421110016659.00,-3.167114,-9.297466,-0.48244676
1421110016660.00,-3.2307317,-9.159153,-0.56372774
1421110016664.00,-3.1207104,-9.375903,-0.74410266
1421110016684.00,-3.0826895,-9.305998,-0.6556366
1421110016704.00,-3.1928604,-9.167236,-0.4840933
1421110016724.00,-3.1368768,-9.236842,-0.49397278
1421110016744.00,-3.009342,-9.291478,-0.6253995
1421110016763.00,-3.060386,-9.285641,-0.6156697
1421110016784.00,-3.1308892,-9.168284,-0.6197113
1421110016804.00,-3.1692095,-9.26169,-0.52196455
1421110016824.00,-3.1501992,-9.237142,-0.5442682
1421110016845.00,-3.3141084,-9.279353,-0.49606842
1421110016868.00,-3.2808774,-9.196725,-0.40939865
1421110016886.00,-3.246449,-9.179062,-0.5303471
1421110016905.00,-3.121459,-9.21364,-0.44397676
1421110016926.00,-3.1828313,-9.368867,-0.45954436
1421110017013.00,-3.0193713,-9.211544,-0.5084926
1421110017014.00,-2.9350965,-9.221274,-0.508792
1421110017015.00,-3.0298493,-9.398805,-0.5553452
1421110017016.00,-3.0916708,-9.294621,-0.5005591
1421110017025.00,-3.0874796,-9.261391,-0.48274612
1421110017044.00,-3.1925611,-9.311387,-0.5724097
1421110017065.00,-3.1500494,-9.17038,-0.48603928
1421110017084.00,-3.238366,-9.327105,-0.4989125
1421110017104.00,-3.2504907,-9.288485,-0.4460724
1421110017124.00,-3.2489936,-9.237591,-0.44502458
1421110017144.00,-3.2934513,-9.160351,-0.43724075
1421110017165.00,-3.309468,-9.223519,-0.47735733
1421110017184.00,-3.0999038,-9.12712,-0.49112868
1421110017207.00,-3.0383816,-9.2118435,-0.529449
1421110017224.00,-3.1466067,-9.102871,-0.5736072
1421110017244.00,-3.0822403,-9.242829,-0.51552796
1421110017339.00,-3.148403,-9.269175,-0.40670425
1421110017340.00,-3.0511053,-9.317075,-0.4682263
1421110017341.00,-3.1292427,-9.191636,-0.4761598
1421110017342.00,-3.1687605,-9.330098,-0.6394702
1421110017345.00,-3.1698084,-9.304651,-0.5560936
1421110017364.00,-3.2700999,-9.36288,-0.45864624
1421110017384.00,-3.190166,-9.167536,-0.37122804
1421110017405.00,-3.215164,-9.215286,-0.4339476
1421110017425.00,-3.3003368,-9.136102,-0.40909928
1421110017455.00,-3.1825318,-9.294472,-0.44277924
1421110017465.00,-3.1870224,-9.190139,-0.49382308
1421110017486.00,-3.110831,-9.296867,-0.46373567
1421110017506.00,-3.0698164,-9.227561,-0.6794371
1421110017525.00,-3.0204191,-9.358688,-0.5090913
1421110017545.00,-2.91414,-9.402996,-0.4724176
1421110017564.00,-2.992427,-9.186846,-0.42257127
1421110017584.00,-3.206033,-9.289533,-0.50504977
1421110017664.00,-3.2955468,-9.241034,-0.48559022
1421110017665.00,-3.274291,-9.217532,-0.5014572
1421110017666.00,-3.3545241,-9.212892,-0.62315416
1421110017671.00,-3.2653098,-9.254954,-0.57166123
1421110017688.00,-3.1792388,-9.303004,-0.47047165
1421110017704.00,-3.1488519,-9.252708,-0.38814285
1421110017725.00,-3.0323942,-9.247021,-0.45580214
1421110017744.00,-3.112777,-9.193432,-0.44397676
1421110017764.00,-3.0561945,-9.305249,-0.5932164
1421110017791.00,-3.0283525,-9.358239,-0.60608965
1421110017804.00,-3.0308971,-9.350455,-0.66147447
1421110017824.00,-3.0716126,-9.311836,-0.5983058
1421110017844.00,-3.242108,-9.3188715,-0.513582
1421110017866.00,-3.316653,-9.325907,-0.4339476
1421110017884.00,-3.289709,-9.200169,-0.46523255
1421110017904.00,-3.21711,-9.33399,-0.6167175
1421110017929.00,-3.115172,-9.345666,-0.51687515
1421110017992.00,-3.0404773,-9.2818985,-0.5028044
1421110017993.00,-3.0717623,-9.244027,-0.4153862
1421110017993.00,-3.1798375,-9.226364,-0.5019063
1421110018008.00,-3.152594,-9.20855,-0.50759447
1421110018027.00,-3.1985486,-9.34327,-0.6183641
1421110018044.00,-3.1451097,-9.147029,-0.5701643
1421110018066.00,-3.2620165,-9.1852,-0.51148635
1421110018084.00,-3.1889684,-9.15152,-0.7381151
1421110018118.00,-3.2784824,-9.379496,-0.5864804
1421110018127.00,-3.132536,-9.22337,-0.54726195
1421110018144.00,-3.2756383,-9.183253,-0.53828067
1421110018164.00,-3.2712972,-9.202563,-0.7234456
1421110018186.00,-3.265609,-9.347162,-0.5071454
1421110018204.00,-3.3389566,-9.154214,-0.44816804
1421110018224.00,-3.1874716,-9.262139,-0.38440064
1421110018289.00,-3.2457006,-9.34836,-0.49172744
1421110018290.00,-3.1913636,-9.225316,-0.4643344
1421110018291.00,-3.138673,-9.19448,-0.55863833
1421110018306.00,-3.1880703,-9.173973,-0.51403105
1421110018324.00,-3.144511,-9.29058,-0.52540743
1421110018344.00,-3.0792468,-9.182804,-0.49816406
1421110018364.00,-3.194058,-9.302405,-0.4897815
1421110018384.00,-3.3250356,-9.279353,-0.5980064
1421110018404.00,-3.274291,-9.170679,-0.5031038
1421110018425.00,-3.3750315,-9.226214,-0.44517425
1421110018456.00,-3.210823,-9.235644,-0.45250902
1421110018464.00,-3.189717,-9.1852,-0.45191026
1421110018484.00,-3.0746064,-9.259445,-0.5695656
1421110018504.00,-3.0666728,-9.211694,-0.5198689
1421110018524.00,-3.1515462,-9.2063055,-0.44996428
1421110018544.00,-3.1415172,-9.271869,-0.45774812
1421110018564.00,-3.1030471,-9.179511,-0.43484575
1421110018633.00,-3.1745985,-9.166489,-0.45714936
1421110018634.00,-3.2527359,-9.292227,-0.434247
1421110018636.00,-3.3362622,-9.189839,-0.5134323
1421110018653.00,-3.1335838,-9.19942,-0.56971526
1421110018666.00,-3.1946566,-9.247919,-0.50924104
1421110018686.00,-3.2741413,-9.284742,-0.3983217
1421110018708.00,-3.1283445,-9.221274,-0.41149428
1421110018724.00,-3.2385154,-9.315129,-0.43559417
1421110018747.00,-3.3004866,-9.232501,-0.5575905
1421110018764.00,-3.2494428,-9.28609,-0.41403902
1421110018784.00,-3.358416,-9.171128,-0.40056702
1421110018805.00,-3.204686,-9.29522,-0.5760022
1421110018824.00,-3.2063324,-9.340426,-0.5255571
1421110018844.00,-3.1268477,-9.364527,-0.4896318
1421110018864.00,-3.061284,-9.335337,-0.5533992
1421110018943.00,-3.144511,-9.335037,-0.5707631
1421110018944.00,-3.1043944,-9.311836,-0.6268964
1421110018946.00,-3.146906,-9.247021,-0.47825545
1421110018947.00,-3.3898509,-9.299711,-0.51552796
1421110018978.00,-3.4193394,-9.189091,-0.5773494
1421110018985.00,-3.3096175,-9.118737,-0.5134323
1421110019004.00,-3.247347,-9.137299,-0.52076703
1421110019026.00,-3.1963034,-9.161099,-0.45430526
1421110019045.00,-3.2254925,-9.246122,-0.5474117
1421110019064.00,-3.1522949,-9.28624,-0.5854326
1421110019084.00,-3.0207183,-9.229807,-0.5400769
1421110019108.00,-3.051704,-9.122629,-0.6420149
1421110019124.00,-3.0085936,-9.259295,-0.7072792
1421110019144.00,-3.1759455,-9.244626,-0.66940796
1421110019165.00,-3.1519954,-9.152118,-0.5866301
1421110019187.00,-3.333867,-9.176667,-0.61686724
1421110019208.00,-3.3404534,-9.265882,-0.5043013
1421110019274.00,-3.2913556,-9.272468,-0.64126647
1421110019275.00,-3.1915133,-9.308543,-0.6342311
1421110019275.00,-3.242557,-9.1129,-0.49591872
1421110019284.00,-3.181035,-9.166189,-0.32557297
1421110019310.00,-2.9461734,-9.191786,-0.50744474
1421110019324.00,-3.0967603,-9.411978,-0.583786
1421110019344.00,-3.0635293,-9.383088,-0.5945636
1421110019367.00,-3.1689103,-9.284593,-0.58707917
1421110019384.00,-3.1596296,-9.3944645,-0.5138814
1421110019404.00,-3.1753469,-9.215735,-0.5560936
1421110019429.00,-3.1600785,-9.317823,-0.6186635
1421110019449.00,-3.1731014,-9.29537,-0.65878004
1421110019465.00,-3.2388148,-9.168434,-0.57390654
1421110019484.00,-3.2070808,-9.30061,-0.38260436
1421110019506.00,-3.1855257,-9.098979,-0.43619293
1421110019526.00,-3.0681696,-9.263487,-0.49427214
1421110019547.00,-3.1778915,-9.234297,-0.5936655
1421110019617.00,-3.2837214,-9.312734,-0.5797444
1421110019618.00,-3.1419663,-9.307645,-0.5809419
1421110019619.00,-3.0922697,-9.217682,-0.54097503
1421110019624.00,-3.200794,-9.170679,-0.5357359
1421110019644.00,-3.1307397,-9.222622,-0.57420594
1421110019664.00,-3.225792,-9.2874365,-0.57001466
1421110019685.00,-3.2611184,-9.318572,-0.58558226
1421110019704.00,-3.200794,-9.327404,-0.52825147
1421110019724.00,-3.185825,-9.350006,-0.6514453
1421110019745.00,-3.1952555,-9.161249,-0.6173163
1421110019765.00,-3.1244526,-9.225166,-0.59351575
1421110019785.00,-3.1895673,-9.219178,-0.5375322
1421110019804.00,-3.2283366,-9.226513,-0.5131329
1421110019824.00,-3.2322285,-9.1748705,-0.64096713
1421110019847.00,-3.0576916,-9.215586,-0.59441394
1421110019866.00,-3.1609766,-9.279054,-0.7075786
1421110019889.00,-3.19795,-9.287137,-0.63018954
1421110019961.00,-3.1856754,-9.323063,-0.5029541
1421110019962.00,-3.1728022,-9.32426,-0.6506969
1421110019963.00,-3.246449,-9.235195,-0.6502478
1421110019964.00,-3.2063324,-9.278904,-0.63872176
1421110019985.00,-3.1659164,-9.237441,-0.52765274
1421110020008.00,-3.249293,-9.232351,-0.6047424
1421110020024.00,-3.1084359,-9.175469,-0.63093793
1421110020046.00,-3.187322,-9.278306,-0.6294411
1421110020065.00,-3.3184493,-9.410181,-0.54756135
1421110020084.00,-3.1816337,-9.19463,-0.59635985
1421110020104.00,-3.161725,-9.1886425,-0.6822812
1421110020124.00,-3.3346157,-9.291179,-0.64096713
1421110020145.00,-3.3090189,-9.182055,-0.4644841
1421110020166.00,-3.389252,-9.215586,-0.601599
1421110020239.00,-3.279081,-9.223519,-0.49996033
1421110020240.00,-3.3651521,-9.311387,-0.68557435
1421110020241.00,-3.4000297,-9.188792,-0.5628296
1421110020245.00,-3.3308735,-9.277258,-0.6836284
1421110020272.00,-3.2518377,-9.250314,-0.61147845
1421110020284.00,-3.302732,-9.272917,-0.5771997
1421110020308.00,-3.1674132,-9.160051,-0.619861
1421110020324.00,-3.069068,-9.303453,-0.8042775
1421110020346.00,-3.0741572,-9.303154,-0.6069878
1421110020366.00,-3.088228,-9.25675,-0.6788384
1421110020386.00,-3.0831385,-9.452394,-0.56118304
1421110020408.00,-3.16427,-9.293873,-0.4349954
1421110020424.00,-3.0431716,-9.130263,-0.71162015
1421110020446.00,-3.009342,-9.229208,-0.6397696
1421110020464.00,-3.0148804,-9.305399,-0.69470537
1421110020484.00,-2.930606,-9.3663225,-0.5908214
1421110020504.00,-3.0683193,-9.2566,-0.5834866
1421110020525.00,-3.23642,-9.32905,-0.5162764
1421110020544.00,-3.157534,-9.226065,-0.63393176
1421110020613.00,-3.2991395,-9.2134905,-0.7044351
1421110020614.00,-3.1498997,-9.204209,-0.6402187
1421110020615.00,-3.0768516,-9.317374,-0.6851253
1421110020632.00,-3.1713052,-9.26169,-0.6550378
1421110020649.00,-3.176245,-9.341924,-0.60354495
1421110020665.00,-3.18343,-9.22307,-0.7137158
1421110020685.00,-3.1876214,-9.202713,-0.83002394
1421110020705.00,-3.1076875,-9.32396,-0.7858658
1421110020724.00,-3.0084438,-9.27621,-0.751138
1421110020745.00,-3.1066396,-9.234447,-0.6182144
1421110020765.00,-3.0805938,-9.135203,-0.5354366
1421110020785.00,-3.0326934,-9.07428,-0.48588958
1421110020807.00,-3.1365774,-9.201964,-0.4352948
1421110020827.00,-3.1605277,-9.173674,-0.62929136
1421110020848.00,-3.0707145,-9.171727,-0.6727011
1421110020868.00,-3.344046,-9.246721,-0.7274872
1421110020957.00,-3.371439,-9.245973,-0.7348219
1421110020958.00,-3.3227901,-9.199869,-0.6056406
1421110020959.00,-3.1620245,-9.236842,-0.7298822
1421110020959.00,-3.1467562,-9.279802,-0.8758287
1421110020968.00,-3.138673,-9.24732,-0.7632628
1421110020985.00,-3.2747402,-9.201815,-0.76535845
1421110021005.00,-3.1925611,-9.272468,-0.83885556
1421110021025.00,-3.0668225,-9.204509,-0.8909473
1421110021045.00,-3.133883,-9.244626,-0.7831714
1421110021066.00,-3.2115715,-9.134006,-0.7030879
1421110021085.00,-3.234923,-9.135802,-0.74230635
1421110021105.00,-3.2668066,-9.080268,-0.70772827
1421110021134.00,-3.1822326,-9.258098,-0.7258406
1421110021145.00,-3.1120286,-9.325158,-0.8620573
1421110021165.00,-3.1774426,-9.209149,-0.86415297
1421110021267.00,-3.2004945,-9.24732,-0.7209009
1421110021268.00,-3.1476545,-9.296418,-0.6797365
1421110021269.00,-3.2750394,-9.269923,-0.82104266
1421110021271.00,-3.231929,-9.300909,-0.7964937
1421110021272.00,-3.1331346,-9.196725,-0.7092252
1421110021288.00,-3.264711,-9.108259,-0.74365354
1421110021306.00,-3.1841784,-9.22831,-0.78661424
1421110021325.00,-3.0784981,-9.144633,-0.6788384
1421110021347.00,-3.171006,-9.265432,-0.8378078
1421110021370.00,-3.172353,-9.166787,-0.7710466
1421110021385.00,-3.3106654,-9.228759,-0.7694
1421110021405.00,-3.1892679,-9.322763,-0.4432283
1421110021426.00,-3.2337255,-9.205257,-0.606389
1421110021446.00,-3.2037878,-9.279503,-0.7485933
1421110021465.00,-3.043022,-9.17517,-0.8620573
1421110021485.00,-3.1528935,-9.187445,-0.6420149
1421110021506.00,-3.151696,-9.313931,-0.6879694
1421110021576.00,-3.1192136,-9.19433,-0.712668
1421110021577.00,-3.1825318,-9.317674,-0.67105454
1421110021578.00,-3.0064979,-9.283994,-0.7138655
1421110021587.00,-3.11128,-9.216334,-0.66910857
1421110021605.00,-3.279081,-9.246721,-0.6002518
1421110021626.00,-3.108885,-9.209449,-0.6493497
1421110021645.00,-3.1722033,-9.30016,-0.6979985
1421110021666.00,-3.3894017,-9.32396,-0.6423143
1421110021689.00,-3.2028894,-9.191786,-0.72539157
1421110021705.00,-3.2242951,-9.237889,-0.71730834
1421110021725.00,-3.1753469,-9.281599,-0.6276448
1421110021746.00,-3.1689103,-9.148825,-0.6186635
1421110021765.00,-3.1912138,-9.250164,-0.6493497
1421110021785.00,-3.054548,-9.225017,-0.6791377
1421110021805.00,-3.0996044,-9.233997,-0.676593
1421110021825.00,-3.1751971,-9.250014,-0.7069798
1421110021876.00,-3.1476545,-9.157657,-0.72524184
1421110021877.00,-3.0841863,-9.230255,-0.64605653
1421110021884.00,-3.2187567,-9.216035,-0.7548802
1421110021905.00,-3.270998,-9.304202,-0.66027695
1421110021926.00,-3.128644,-9.214688,-0.71790713
1421110021945.00,-3.1955547,-9.128917,-0.85427356
1421110021965.00,-3.2946486,-9.190887,-0.66671354
1421110021985.00,-3.3097672,-9.229807,-0.66312104
1421110022005.00,-3.2130685,-9.205856,-0.67898804
1421110022025.00,-3.1443613,-9.192235,-0.7382648
1421110022045.00,-2.992128,-9.144633,-0.696801
1421110022065.00,-3.1335838,-9.324859,-0.6619235
1421110022085.00,-3.104095,-9.404344,-0.7137158
1421110022106.00,-3.102149,-9.136849,-0.6962022
1421110022125.00,-3.1904655,-9.233997,-0.735271
1421110022190.00,-3.1970518,-9.143736,-0.73063064
1421110022191.00,-3.2235465,-9.215586,-0.76131684
1421110022192.00,-3.1702573,-9.153166,-0.75967026
1421110022208.00,-3.2361205,-9.267229,-0.73033124
1421110022225.00,-3.2459998,-9.241781,-0.72419405
1421110022248.00,-3.2730935,-9.20885,-0.75368273
1421110022265.00,-3.1410682,-9.267827,-0.6746471
1421110022285.00,-3.181035,-9.192534,-0.56746995
1421110022307.00,-3.1346314,-9.244476,-0.6041437
1421110022326.00,-3.1096334,-9.307795,-0.65623534
1421110022347.00,-3.1707065,-9.288485,-0.6873706
1421110022367.00,-3.254233,-9.304502,-0.76416093
1421110022386.00,-3.306025,-9.157058,-0.75937086
1421110022405.00,-3.2275882,-9.095087,-0.63887143
1421110022426.00,-3.1585817,-9.246422,-0.6224057
1421110022445.00,-3.094964,-9.138946,-0.70024383
1421110022465.00,-3.1419663,-9.253307,-0.8027806
1421110022517.00,-3.2129188,-9.268276,-0.6727011
1421110022518.00,-3.2230976,-9.1323595,-0.67988616
1421110022526.00,-3.2638128,-9.254655,-0.5755531
1421110022545.00,-3.2560291,-9.095535,-0.63093793
1421110022565.00,-3.3188982,-9.230255,-0.6879694
1421110022585.00,-3.3308735,-9.222173,-0.69889665
1421110022605.00,-3.2251933,-9.214089,-0.7361691
1421110022625.00,-3.3913476,-9.255254,-0.74485105
1421110022645.00,-3.2653098,-9.251661,-0.75308394
1421110022665.00,-3.1103818,-9.33399,-0.723745
1421110022685.00,-3.1231055,-9.271719,-0.8753796
1421110022705.00,-3.0546978,-9.207503,-0.95381653
1421110022725.00,-3.0975087,-9.234896,-0.9051677
1421110022745.00,-3.2009437,-9.38189,-0.8761281
1421110022765.00,-3.3010855,-9.149124,-0.5673202
1421110022786.00,-3.2033386,-9.173224,-0.5990543
1421110022847.00,-3.231031,-9.184751,-0.6749464
1421110022848.00,-3.0279036,-9.0567665,-0.694406
1421110022849.00,-3.1343322,-9.190738,-0.7018904
1421110022868.00,-3.24121,-9.263038,-0.8175998
1421110022886.00,-3.2210019,-9.284892,-0.746797
1421110022905.00,-3.1446607,-9.126371,-0.7595206
1421110022925.00,-3.1970518,-9.211993,-0.7499405
1421110022946.00,-3.1340327,-9.311088,-0.75458086
1421110022965.00,-2.979554,-9.311836,-0.5987549
1421110022986.00,-3.1594799,-9.270223,-0.63887143
1421110023009.00,-3.3082705,-9.096883,-0.79933774
1421110023025.00,-3.2428565,-9.271569,-0.7195537
1421110023045.00,-3.1597793,-9.285341,-0.66536635
1421110023066.00,-3.0819411,-9.273965,-0.6474037
1421110023086.00,-3.0677207,-9.216634,-0.53393966
1421110023105.00,-3.0490096,-9.309141,-0.48244676
1421110023128.00,-3.082989,-9.279952,-0.4647835
1421110023194.00,-3.1031969,-9.389225,-0.50385225
1421110023196.00,-3.0211675,-9.345516,-0.56178176
1421110023197.00,-3.0265563,-9.323213,-0.6117778
1421110023205.00,-3.1883698,-9.283395,-0.6430628
1421110023225.00,-3.286865,-9.096883,-0.47406417
1421110023245.00,-3.4043705,-9.202863,-0.5144801
1421110023265.00,-3.3193474,-9.123378,-0.52795213
1421110023285.00,-3.1615756,-8.995993,-0.54082537
1421110023308.00,-2.927163,-9.259595,-0.5885761
1421110023326.00,-2.8518696,-9.412726,-0.67988616
1421110023346.00,-2.7560687,-9.449999,-0.6183641
1421110023365.00,-2.9436288,-9.386381,-0.56148237
1421110023385.00,-3.0008097,-9.274115,-0.4647835
1421110023405.00,-3.166216,-9.154663,-0.28575575
1421110023425.00,-3.1624737,-9.159602,-0.18217117
1421110023446.00,-3.2398627,-9.172775,-0.22588028
1421110023504.00,-3.1009514,-9.251811,-0.15148498
1421110023505.00,-3.1768436,-9.250613,-0.2945874
1421110023506.00,-3.1663656,-9.310788,-0.26300308
1421110023526.00,-2.9849427,-9.373807,-0.067509614
1421110023545.00,-2.8008256,-9.369166,-0.099543
1421110023565.00,-2.8018734,-9.48323,-0.007933502
1421110023587.00,-3.033891,-9.35764,0.18067428
1421110023606.00,-3.1284943,-9.2813,0.46867537
1421110023626.00,-3.2216005,-9.321715,0.45879593
1421110023645.00,-3.0157785,-9.152267,0.3025209
1421110023666.00,-2.911745,-9.305249,0.39248383
1421110023685.00,-3.0537996,-9.369915,0.48544052
1421110023705.00,-3.1368768,-9.455986,0.5508545
1421110023725.00,-3.1196625,-9.428294,0.43888733
1421110023746.00,-2.983895,-9.476045,0.46957353
1421110023766.00,-2.9045599,-9.390273,0.55235136
1421110023785.00,-2.9219239,-9.24732,0.4246669
1421110023856.00,-2.9500654,-9.429192,0.44667113
1421110023857.00,-3.0076954,-9.329499,0.51433045
1421110023858.00,-3.0554461,-9.2818985,0.646805
1421110023866.00,-2.8678863,-9.316326,0.6984476
1421110023885.00,-2.7783723,-9.433982,0.61117905
1421110023906.00,-2.5743465,-9.345816,0.45625123
1421110023926.00,-2.4197183,-9.347911,0.63617706
1421110023945.00,-2.6363177,-9.476194,0.65892977
1421110023965.00,-2.7095156,-9.518855,0.73048097
1421110023986.00,-2.901117,-9.3944645,0.75173676
1421110024005.00,-2.7375073,-9.323213,0.7604187
1421110024025.00,-2.8946805,-9.328152,0.7512877
1421110024045.00,-2.8403435,-9.39132,0.8199948
1421110024065.00,-2.817441,-9.331744,0.66282165
1421110024090.00,-2.6432035,-9.414971,0.44023454
1421110024107.00,-2.6149123,-9.503886,0.41179368
1421110024132.00,-2.5848248,-9.504036,0.5734575
1421110024194.00,-2.6219475,-9.529334,0.6554869
1421110024195.00,-2.5526419,-9.381591,0.66910857
1421110024196.00,-2.595303,-9.463321,0.5923183
1421110024207.00,-2.6719437,-9.488319,0.77433974
1421110024225.00,-2.599644,-9.345217,0.70278853
1421110024245.00,-2.4792943,-9.442514,0.6209088
1421110024266.00,-2.5662634,-9.374705,0.66416883
1421110024285.00,-2.6641598,-9.332942,0.7023395
1421110024306.00,-2.5577312,-9.467063,0.7177574
1421110024325.00,-2.588118,-9.458232,0.5734575
1421110024345.00,-2.579436,-9.373208,0.6348299
1421110024366.00,-2.432292,-9.418414,0.667462
1421110024385.00,-2.553989,-9.3365345,0.7512877
1421110024407.00,-2.6988876,-9.341325,0.6143225
1421110024426.00,-2.7437942,-9.245224,0.6951544
1421110024445.00,-2.7937903,-9.41557,0.6831793
1421110024494.00,-2.8648925,-9.489217,0.6436615
1421110024495.00,-2.889142,-9.383836,0.7720944
1421110024505.00,-3.0442195,-9.440119,0.7180568
1421110024525.00,-2.948718,-9.300909,0.7288344
1421110024545.00,-2.8252249,-9.293275,0.6566844
1421110024565.00,-2.650089,-9.4104805,0.6462062
1421110024585.00,-2.5346792,-9.352851,0.6183641
1421110024605.00,-2.3926246,-9.383388,0.6078859
1421110024626.00,-2.3623874,-9.483379,0.5230124
1421110024645.00,-2.4685166,-9.311836,0.7316785
1421110024666.00,-2.518363,-9.387728,0.581391
1421110024686.00,-2.3815475,-9.427246,0.5902226
1421110024705.00,-2.4863296,-9.445209,0.508792
1421110024726.00,-2.5343797,-9.423504,0.5519023
1421110024745.00,-2.6590705,-9.420211,0.581391
1421110024765.00,-2.597249,-9.345666,0.40266266
1421110024786.00,-2.4956102,-9.513766,0.5511539
1421110024844.00,-2.604434,-9.292826,0.65878004
1421110024845.00,-2.8065138,-9.468111,0.5495073
1421110024846.00,-2.8168423,-9.33414,0.58707917
1421110024865.00,-2.7451415,-9.547596,0.5676196
1421110024885.00,-2.8521688,-9.433533,0.6069878
1421110024905.00,-2.7925928,-9.317823,0.6066884
1421110024925.00,-2.7589128,-9.302855,0.45430526
1421110024946.00,-2.556833,-9.4314375,0.44771898
1421110024966.00,-2.8642936,-9.572594,0.45325744
1421110024985.00,-2.8623476,-9.41587,0.42391846
1421110025005.00,-2.8759694,-9.412726,0.40969804
1421110025026.00,-2.6806257,-9.283395,0.39248383
1421110025046.00,-2.4831862,-9.48293,0.4379892
1421110025066.00,-2.7072701,-9.438622,0.5590874
1421110025132.00,-2.9374914,-9.464369,0.56432647
1421110025133.00,-2.8020232,-9.2818985,0.42302033
1421110025134.00,-2.6970913,-9.360335,0.54247195
1421110025150.00,-2.6033862,-9.388327,0.5105882
1421110025165.00,-2.6436524,-9.317823,0.53453845
1421110025185.00,-2.5593777,-9.231902,0.41059616
1421110025205.00,-2.5412655,-9.34821,0.2944377
1421110025225.00,-2.4152274,-9.429491,0.3079097
1421110025246.00,-2.347119,-9.548793,0.20252883
1421110025265.00,-2.1466858,-9.518705,0.28231293
1421110025285.00,-2.1546195,-9.5452,0.27093658
1421110025306.00,-2.2203329,-9.363179,0.20911515
1421110025325.00,-2.2930815,-9.430689,0.2998265
1421110025345.00,-2.5048912,-9.407038,0.4152365
1421110025366.00,-2.5402176,-9.578281,0.29099488
1421110025385.00,-2.5267456,-9.539812,0.1817221
1421110025406.00,-2.7479856,-9.484128,0.25566834
1421110025426.00,-2.8373497,-9.560618,0.39996827
1421110025475.00,-2.9211755,-9.411229,0.42391846
1421110025476.00,-2.8270211,-9.320218,0.40236327
1421110025486.00,-2.8865974,-9.376501,0.43813887
1421110025505.00,-2.6708958,-9.433982,0.3595523
1421110025525.00,-2.5490491,-9.404344,0.26614654
1421110025546.00,-2.4665709,-9.373358,0.49472123
1421110025566.00,-2.732867,-9.303903,0.6427634
1421110025587.00,-2.7892997,-9.285192,0.5650749
1421110025610.00,-2.665058,-9.305698,0.49067962
1421110025626.00,-2.7390041,-9.422755,0.44502458
1421110025646.00,-2.8147466,-9.308244,0.5216652
1421110025666.00,-2.9725187,-9.302705,0.5809419
1421110025688.00,-2.9695249,-9.426348,0.4752617
1421110025708.00,-2.8633955,-9.394015,0.3381468
1421110025727.00,-2.6668541,-9.314231,0.45176056
1421110025794.00,-2.7175987,-9.4402685,0.61626846
1421110025795.00,-2.6530828,-9.448502,0.60070086
1421110025796.00,-2.7702892,-9.467512,0.4734654
1421110025806.00,-2.833907,-9.6178,0.5426216
1421110025826.00,-2.8927345,-9.412726,0.43619293
1421110025846.00,-2.876568,-9.371861,0.32721955
1421110025865.00,-2.626139,-9.334739,0.3001259
1421110025887.00,-2.4644752,-9.4612255,0.29294083
1421110025908.00,-2.3682253,-9.580527,0.5745053
1421110025927.00,-2.4385788,-9.605226,0.6113287
