time_milisec,ax,ay,az
1421110368658.00,-0.5493576,3.5655854,9.390722
1421110368676.00,-0.6518944,3.8657112,9.372909
1421110368698.00,-0.53678375,3.8957987,9.240734
1421110368716.00,-0.6391708,4.052373,9.130114
1421110368736.00,-0.6692583,3.9419029,9.059311
1421110368757.00,-0.46643007,3.9016366,9.130263
1421110368777.00,-0.6399193,3.971092,9.270822
1421110368797.00,-0.5505551,3.913462,9.246422
1421110368817.00,-0.5480104,3.8470001,9.298064
1421110368837.00,-0.5426216,3.8193078,9.301059
1421110368857.00,-0.53828067,3.7741017,9.165291
1421110368878.00,-0.5888754,3.907175,9.258247
1421110368897.00,-0.5300478,3.840264,9.209599
1421110368917.00,-0.5349875,3.9178028,9.100475
1421110368939.00,-0.62854296,3.8101766,9.069639
1421110368957.00,-0.53828067,3.7986507,9.0551195
1421110368977.00,-0.55010605,3.882626,9.131461
1421110368997.00,-0.49861312,3.8877153,9.204509
1421110369017.00,-0.5195696,3.8609211,9.091345
1421110369040.00,-0.8352631,3.7365298,9.142538
1421110369058.00,-0.4631369,3.8874161,9.114845
1421110369077.00,-0.5412744,3.7847297,8.967852
1421110369097.00,-0.7086264,3.8688548,9.092542
1421110369117.00,-0.5037025,3.7300932,9.020093
1421110369137.00,-0.6521938,3.8914576,9.470356
1421110369160.00,-0.6637198,3.7110827,9.271869
1421110369177.00,-0.73871386,3.7770956,9.392668
1421110369197.00,-0.81385756,3.7724552,9.415271
1421110369217.00,-0.74515045,3.7733533,9.226214
1421110369237.00,-0.023800507,3.3870068,9.205707
1421110369257.00,-0.9511221,3.583548,9.765244
1421110369277.00,-1.0584489,3.9119651,9.306597
1421110369299.00,-0.9241782,3.9194496,9.583072
1421110369319.00,-0.73048097,3.7824843,9.194929
1421110369339.00,-0.73601943,3.8565803,9.191037
1421110369359.00,-0.79035646,3.7742515,9.129365
1421110369379.00,-0.7432045,3.6848872,9.152267
1421110369399.00,-0.55639297,3.695665,9.044492
1421110369419.00,-0.49576905,3.555107,9.068442
1421110369439.00,-0.51043856,3.5905833,9.118138
1421110369459.00,-0.8403525,3.8866677,9.209299
1421110369479.00,-0.6493497,3.9683976,9.461824
1421110369499.00,-0.5185217,3.760031,9.613159
1421110369519.00,-0.38185593,3.4389486,9.205407
1421110369539.00,-0.21285737,3.401227,8.7038
1421110369559.00,-0.28620484,3.7351828,8.932375
1421110369579.00,-0.30416748,3.8760397,8.993149
1421110369599.00,-0.44786865,3.8815782,9.03132
1421110369619.00,-0.4429289,3.9306762,9.169782
1421110369639.00,-0.26764342,3.8127215,9.029523
1421110369659.00,-0.4369414,3.6036062,9.174421
1421110369680.00,-0.43319917,3.5851946,9.325008
1421110369708.00,-0.4763095,3.7107835,9.335187
1421110369720.00,-0.42541534,3.7010536,9.418414
1421110369737.00,-0.56342834,3.457061,9.306597
1421110369757.00,-0.45011398,3.6534526,9.554332
1421110369777.00,-0.43484575,3.5896852,9.455387
1421110369796.00,-0.23650818,3.546425,9.379944
1421110369818.00,-0.4790039,3.4495766,9.313931
1421110369838.00,-0.4736151,3.4667907,9.389375
1421110369858.00,-0.31135255,3.5943255,9.293873
1421110369879.00,-0.40640488,3.4468822,9.05033
1421110369898.00,-0.39083725,3.6386335,9.225915
1421110369919.00,-0.57390654,3.6786003,9.31962
1421110369938.00,-0.57540345,3.471431,9.380543
1421110369959.00,-0.4670288,3.5507662,9.497899
1421110369978.00,-0.47735733,3.5519636,9.385932
1421110369999.00,-0.4857399,3.5610948,9.306148
1421110370019.00,-0.47466293,3.5226247,9.289233
1421110370038.00,-0.6366261,3.595074,9.41587
1421110370059.00,-0.6728508,3.4540672,9.520502
1421110370079.00,-0.676593,3.6092944,9.307196
1421110370098.00,-0.60040146,3.7028499,9.223819
1421110370119.00,-0.6518944,3.8007462,9.284892
1421110370138.00,-0.66416883,3.674409,9.280401
1421110370162.00,-0.44951522,3.456163,9.31498
1421110370180.00,-0.6456075,3.4117053,9.511221
1421110370200.00,-0.671803,3.50571,9.341025
1421110370219.00,-0.658331,3.4712815,9.416319
1421110370240.00,-0.66536635,3.4543667,9.325907
1421110370260.00,-0.5530998,3.300187,9.145382
1421110370286.00,-0.6572832,3.6612365,9.28609
1421110370299.00,-0.71341646,3.588787,9.233399
1421110370322.00,-0.67210233,3.6417768,9.184152
1421110370337.00,-0.5640271,3.5762131,9.082812
1421110370357.00,-0.549657,3.6486626,9.29522
1421110370377.00,-0.5508545,3.5456767,9.444011
1421110370397.00,-0.62390256,3.3724868,9.465716
1421110370419.00,-0.51747394,3.50571,9.595346
1421110370439.00,-0.53289187,3.560047,9.352851
1421110370459.00,-0.62929136,3.6332445,9.412726
1421110370479.00,-0.49172744,3.5784585,9.222173
1421110370501.00,-0.583786,3.534001,9.14149
1421110370523.00,-0.5987549,3.4057178,9.1814575
1421110370556.00,-0.5622308,3.705694,9.264534
1421110370557.00,-0.6544391,3.4687366,9.448052
1421110370585.00,-0.5215155,3.307522,9.589658
1421110370601.00,-0.46687913,3.3855097,9.470506
1421110370618.00,-0.42945695,3.439248,9.384285
1421110370637.00,-0.3583548,3.4953814,9.209599
1421110370658.00,-0.52570677,3.5515146,9.323811
1421110370677.00,-0.42796004,3.529211,9.235045
1421110370703.00,-0.61028093,3.464246,9.22816
1421110370721.00,-0.6861731,3.4326618,9.440867
1421110370738.00,-0.70937485,3.4281712,9.514365
1421110370792.00,-0.68976563,3.3745825,9.409583
1421110370793.00,-0.6581813,3.5190322,9.369616
1421110370798.00,-0.57540345,3.5419345,9.364377
1421110370821.00,-0.52570677,3.608995,9.443113
1421110370844.00,-0.63932055,3.5193315,9.304502
1421110370876.00,-0.56193143,3.4513729,9.411978
1421110370877.00,-0.6942563,3.4149985,9.349857
1421110370897.00,-0.5441185,3.573369,9.36752
1421110370931.00,-0.6110294,3.4117053,9.259146
1421110370941.00,-0.7072792,3.4266741,9.375005
1421110370974.00,-0.56312895,3.3938923,9.34342
1421110370980.00,-0.64545774,3.387905,9.30974
1421110371023.00,-0.6237529,3.2428565,9.370664
1421110371024.00,-0.5839357,3.345543,9.328751
1421110371038.00,-0.69246,3.42862,9.374855
1421110371061.00,-0.8089178,3.4989738,9.504485
1421110371079.00,-0.72703815,3.418591,9.430988
1421110371103.00,-0.58812696,3.346441,9.345816
1421110371116.00,-0.5198689,3.5744169,9.332044
1421110371145.00,-0.72015244,3.4459841,9.224867
1421110371184.00,-0.85307604,3.6052527,9.293724
1421110371184.00,-0.7807764,3.4395475,9.444759
1421110371222.00,-0.78751236,3.4724789,9.352102
1421110371222.00,-0.8342152,3.5711238,9.386531
1421110371236.00,-1.0168355,3.7564385,9.48293
1421110371259.00,-1.0267149,3.7640727,9.450298
1421110371297.00,-0.9618997,3.588787,9.470805
1421110371298.00,-0.9761202,3.7012033,9.392069
1421110371325.00,-1.1023078,3.7223094,9.111552
1421110371336.00,-1.0226734,3.7338355,9.045091
1421110371357.00,-1.0436298,3.738326,9.121582
1421110371377.00,-1.2142749,3.7459602,9.225915
1421110371396.00,-1.1913725,3.8173618,9.186846
1421110371416.00,-1.1217673,3.8309834,9.322763
1421110371439.00,-1.2183166,3.931275,9.415421
1421110371457.00,-1.5744259,4.2932224,8.133935
1421110371477.00,-1.4458433,4.131109,9.1185875
1421110371530.00,-1.3211527,3.8178108,9.49715
1421110371531.00,-1.5820601,3.9854622,9.282946
1421110371552.00,-1.5627502,4.0209384,9.355096
1421110371588.00,-1.2014017,3.9631586,9.2449255
1421110371588.00,-1.0943742,3.924988,9.11784
1421110371597.00,-1.19736,3.9172041,9.141789
1421110371617.00,-1.045426,3.854185,9.237591
1421110371639.00,-0.8196954,3.637436,9.153016
1421110371660.00,-0.9548643,3.585494,9.341475
1421110371677.00,-0.94273955,3.552263,9.433682
1421110371697.00,-0.9147478,3.642675,9.374256
1421110371717.00,-0.85307604,3.8574784,9.338032
1421110371739.00,-0.84634,3.870651,9.361832
1421110371759.00,-0.86295545,3.8146675,9.354946
1421110371780.00,-0.8491841,3.6606376,9.220975
1421110371799.00,-0.80367875,3.5408866,9.267827
1421110371819.00,-0.69754946,3.6525545,9.373807
1421110371840.00,-0.7433542,3.5351985,9.34821
1421110371859.00,-0.76461,3.442242,9.480685
1421110371879.00,-0.82089293,3.4200878,9.2360935
1421110371900.00,-0.7696994,3.612887,9.201964
1421110371918.00,-0.9108559,3.6986587,9.142538
1421110371937.00,-0.7842192,3.7503011,9.2890835
1421110371957.00,-0.6164181,3.5823505,9.036858
1421110371977.00,-0.57001466,3.6259098,9.181308
1421110371997.00,-0.68018556,3.5247202,9.199719
1421110372017.00,-0.73347473,3.4995725,9.147778
1421110372037.00,-0.818947,3.7242553,9.166339
1421110372059.00,-0.8063731,3.7483552,9.279952
1421110372082.00,-0.7774832,3.6673737,9.2449255
1421110372104.00,-0.7933502,3.670068,9.1555605
1421110372118.00,-0.6882687,3.6702178,9.296568
1421110372138.00,-0.83436495,3.781736,9.2239685
1421110372158.00,-0.69350785,3.5694773,9.328002
1421110372178.00,-0.9068143,3.4899926,9.332343
1421110372197.00,-0.7887099,3.7083883,9.207054
1421110372217.00,-0.80337936,3.7905674,9.304951
1421110372237.00,-0.95755875,3.8420603,9.388327
1421110372260.00,-0.86579955,3.7107835,9.409284
1421110372279.00,-0.70278853,3.732638,8.700208
1421110372300.00,-1.1320958,3.916755,9.175619
1421110372317.00,-1.1073972,3.6751575,9.757609
1421110372337.00,-0.96294755,3.4952316,9.537117
1421110372357.00,-0.803529,3.7479062,9.283545
1421110372386.00,-0.8225395,3.7497025,9.094488
1421110372422.00,-1.0618918,3.7712576,9.242979
1421110372423.00,-0.9397458,3.858077,9.33384
1421110372465.00,-0.8533754,3.7862265,9.201964
1421110372466.00,-0.69290906,3.7332368,8.890761
1421110372484.00,-0.7857161,3.7230577,9.047935
1421110372498.00,-0.8548723,3.6621346,9.123528
1421110372541.00,-0.77044785,3.5357974,9.334439
1421110372542.00,-0.7447014,3.740272,9.1869955
1421110372562.00,-0.7773335,3.6718643,9.100775
1421110372577.00,-0.8184979,3.6844382,9.111103
1421110372602.00,-0.77583665,3.6938686,9.263337
1421110372620.00,-0.805475,3.7814364,9.358838
1421110372639.00,-0.74889266,3.935466,9.195378
1421110372658.00,-0.84424436,3.7964053,8.941656
1421110372678.00,-0.90022796,3.773952,9.102122
1421110372697.00,-0.88705534,3.6289036,9.188942
1421110372720.00,-0.8770262,3.545527,9.150322
1421110372738.00,-1.015638,3.7559893,9.136401
1421110372760.00,-0.96668977,3.7890706,9.07907
1421110372807.00,-0.7908055,3.79416,8.955128
1421110372808.00,-0.83945435,3.6444712,8.984766
1421110372820.00,-0.94827807,3.776796,9.21888
1421110372845.00,-1.0009685,3.7779937,9.308693
1421110372882.00,-1.1744577,3.8357735,9.397608
1421110372883.00,-1.1653267,3.7752993,9.354647
1421110372919.00,-1.1341914,3.8529878,9.210796
1421110372922.00,-1.1576926,3.8582268,9.328301
1421110372951.00,-1.275797,3.972589,9.302106
1421110372973.00,-1.1931688,4.050427,9.245973
1421110372977.00,-1.2174183,4.0131545,9.17532
1421110373002.00,-1.3446537,3.857179,9.139994
1421110373025.00,-1.1692185,4.0712337,8.161029
1421110373037.00,-1.5395485,4.0688386,9.475745
1421110373060.00,-1.1686199,3.4682877,9.56481
1421110373086.00,-0.9852512,3.4736764,9.258547
1421110373108.00,-1.0078541,3.7209623,9.09359
1421110373119.00,-1.1105406,3.9954913,9.043893
1421110373138.00,-1.1280541,3.804339,9.321865
1421110373159.00,-1.1003618,3.821553,9.320817
1421110373180.00,-1.0111473,3.8140686,9.111552
1421110373198.00,-0.9523196,3.885919,9.167087
1421110373218.00,-0.94932586,3.8040395,9.1814575
1421110373238.00,-0.8881032,3.777844,9.32426
1421110373259.00,-0.85142946,3.6856356,9.3188715
1421110373278.00,-0.93001604,3.6983593,9.30046
1421110373298.00,-0.9201366,3.6429744,9.121731
1421110373319.00,-1.0144404,3.7485049,9.172775
1421110373338.00,-0.95187056,3.7149746,9.302555
1421110373358.00,-0.88690567,3.7568874,9.088201
1421110373380.00,-0.8108638,3.7827837,9.198522
1421110373399.00,-0.7937993,3.7993991,9.198372
1421110373418.00,-0.916544,3.8146675,9.067694
1421110373438.00,-0.9331595,3.844156,9.068892
1421110373458.00,-0.8184979,3.7754488,9.243578
1421110373478.00,-0.9725276,3.7342844,9.185498
1421110373498.00,-1.0792557,3.7732036,9.3541975
1421110373518.00,-0.88286406,3.562292,9.275461
1421110373538.00,-0.9988728,3.669619,9.157657
1421110373558.00,-1.0204281,3.6655774,9.451196
1421110373577.00,-0.8707393,3.7958066,9.429192
1421110373601.00,-0.9090596,3.803291,9.346863
1421110373620.00,-0.9419911,3.832181,9.09344
1421110373639.00,-0.9963281,3.7709582,9.328301
1421110373659.00,-0.88974977,3.683091,9.178014
1421110373678.00,-0.88166654,3.691773,9.337133
1421110373699.00,-0.8631052,3.648962,9.30974
1421110373719.00,-0.8852591,3.667224,9.161848
1421110373738.00,-0.73317534,3.4552648,9.133556
1421110373761.00,-0.7220984,3.628305,9.209299
1421110373778.00,-0.7500902,3.5742674,9.230106
1421110373801.00,-0.9422905,3.610941,9.28624
1421110373820.00,-0.8214917,3.6148329,9.3806925
1421110373840.00,-0.90307206,3.6678228,9.388327
1421110373859.00,-0.8174501,3.6092944,9.282048
1421110373880.00,-0.77673477,3.5705252,9.2046585
1421110373898.00,-0.8572673,3.676355,9.207354
1421110373918.00,-0.7949968,3.5606456,9.226513
1421110373937.00,-0.7764354,3.6465669,9.153016
1421110373960.00,-0.82463515,3.6091447,9.205856
1421110373979.00,-0.76505905,3.605702,9.309441
1421110373998.00,-0.87268525,3.6094441,9.3381815
1421110374020.00,-0.757874,3.6940184,9.288035
1421110374038.00,-0.8494835,3.652255,9.334888
1421110374058.00,-0.9627979,3.3852105,9.457483
1421110374078.00,-0.7924521,3.615282,9.278605
1421110374098.00,-0.63872176,3.3112643,9.568402
1421110374118.00,-0.92687255,3.8562808,9.246122
1421110374138.00,-0.8029303,3.5685792,9.249715
1421110374158.00,-0.9048683,3.454217,9.222023
1421110374180.00,-0.84604067,3.5088532,9.265582
1421110374198.00,-0.8452922,3.5958223,9.331894
1421110374218.00,-0.92178315,3.5842965,9.532777
1421110374238.00,-0.737666,3.5534606,9.345666
1421110374263.00,-0.71985304,3.5323544,9.322913
1421110374279.00,-0.8044272,3.5031652,9.399404
1421110374301.00,-0.78122544,3.628305,9.447005
1421110374320.00,-0.7021898,3.542234,9.414522
1421110374340.00,-0.73063064,3.5971696,9.216784
1421110374360.00,-0.83885556,3.5420842,9.145532
1421110374379.00,-0.8134085,3.478167,9.14134
1421110374398.00,-0.8298743,3.608546,9.254056
1421110374419.00,-0.669857,3.6131864,9.168284
1421110374438.00,-0.75173676,3.5314562,9.311237
1421110374458.00,-0.6044431,3.412753,9.190139
1421110374478.00,-0.6251001,3.5932777,9.232052
1421110374500.00,-0.628992,3.5901344,9.227561
1421110374518.00,-0.6816824,3.5823505,9.2118435
1421110374544.00,-0.7337741,3.594026,9.246422
1421110374568.00,-0.6779402,3.6193235,9.077573
1421110374578.00,-0.7143146,3.621569,9.082513
1421110374602.00,-0.62195665,3.6229162,9.225915
1421110374618.00,-0.68961596,3.713777,9.298663
1421110374638.00,-0.7060817,3.4593062,9.252858
1421110374660.00,-0.7129674,3.321443,9.263637
1421110374678.00,-0.64126647,3.489843,9.259146
1421110374699.00,-0.6367758,3.4188905,9.426348
1421110374733.00,-0.80727124,3.4844542,9.347312
1421110374749.00,-0.78242296,3.643573,9.346115
1421110374831.00,-0.649649,3.6022592,9.33399
1421110374831.00,-0.80472654,3.637436,9.339378
1421110374832.00,-0.7336244,3.5877392,9.448502
1421110374833.00,-0.72015244,3.6055522,9.397009
1421110374842.00,-0.81550413,3.626359,9.344169
1421110374868.00,-0.86669767,3.5694773,9.281599
1421110374878.00,-0.7313791,3.7251534,9.2681265
1421110374908.00,-0.72808594,3.5968702,9.207503
1421110374965.00,-0.7288344,3.6377354,9.210497
1421110374966.00,-0.69889665,3.6583924,9.0093155
1421110374966.00,-0.66716266,3.5863922,9.250763
1421110375001.00,-0.69919604,3.550317,9.081764
1421110375002.00,-0.7547305,3.5287619,9.249415
1421110375069.00,-0.7710466,3.5528617,9.360036
1421110375070.00,-0.62165725,3.572471,9.254655
1421110375070.00,-0.6382727,3.520529,9.150621
1421110375099.00,-0.7044351,3.4569113,9.219178
1421110375100.00,-0.7765851,3.5545084,9.177715
1421110375158.00,-0.76356214,3.6384838,9.265732
1421110375159.00,-0.91489744,3.827391,9.303903
1421110375159.00,-0.82358736,3.626359,9.451345
1421110375206.00,-0.87672687,3.3367112,9.549991
1421110375207.00,-0.69036436,3.5563047,9.989327
1421110375226.00,-0.34967285,3.3251853,9.513467
1421110375277.00,-0.6712042,4.0065684,8.982521
1421110375277.00,-0.76371187,3.9305265,9.125623
1421110375278.00,-0.34697846,3.6119888,9.18026
1421110375328.00,-0.14265335,3.2362702,9.875264
1421110375329.00,-0.13816269,3.1855257,9.354048
1421110375379.00,-0.19279908,3.579207,8.966504
1421110375379.00,-0.24908203,3.663931,8.918155
1421110375380.00,0.16585511,3.2284863,8.783435
1421110375398.00,-0.057779845,3.1807356,9.359437
1421110375451.00,0.022453308,3.3778756,9.082513
1421110375452.00,0.13277389,3.266208,9.351054
1421110375466.00,0.32946488,3.2102244,8.817714
1421110375477.00,0.29279113,3.2018418,8.838071
1421110375498.00,0.08427475,3.306025,8.921448
1421110375517.00,0.343835,3.3215928,9.287287
1421110375537.00,-0.7532337,3.9306762,9.121432
1421110375609.00,-0.23246658,3.3747323,9.911938
1421110375610.00,-0.08876541,3.200794,10.1206045
1421110375611.00,-0.4734654,3.7944593,10.088421
1421110375634.00,-0.7779323,3.903283,9.801618
1421110375638.00,-0.49082932,3.5929785,9.42485
1421110375658.00,-0.68692154,3.718268,9.193432
1421110375678.00,-0.9985735,3.7058437,8.999585
1421110375698.00,-0.74889266,3.6115398,9.423953
1421110375738.00,-0.71790713,3.5799553,9.515263
1421110375739.00,-0.35146913,3.4019756,9.513766
1421110375758.00,-0.45550278,3.4197886,9.239536
1421110375778.00,-0.5954617,3.7663178,9.073381
1421110375798.00,-0.23516098,3.558101,9.147179
1421110375828.00,-0.27827132,3.5200799,9.307196
1421110375840.00,-0.26839188,3.5910325,9.46362
1421110375858.00,-0.17962646,3.6241136,9.47784
1421110375879.00,-0.0755928,3.5754647,9.311986
1421110375941.00,-0.47601014,3.5347495,9.08865
1421110375942.00,-0.3408412,3.6106417,8.657995
1421110375944.00,-0.12918137,3.631149,8.923693
1421110375986.00,-0.585732,3.3371603,8.350086
1421110375987.00,-0.43349853,3.3612602,8.961414
1421110375999.00,-0.2999762,3.3114138,9.104517
1421110376021.00,-0.26464966,3.4123042,8.787027
1421110376038.00,-0.33111146,3.6914735,8.679252
1421110376071.00,-0.66027695,3.7179685,8.303832
1421110376078.00,-0.52510804,3.5337017,8.145611
1421110376099.00,0.038170625,3.5308576,7.8835063
1421110376119.00,-0.015417938,3.2909064,8.369994
1421110376138.00,-0.31359786,3.2274384,8.627908
1421110376159.00,0.044008482,1.2772938,10.326725
1421110376178.00,-0.19624192,2.87088,11.118279
1421110376199.00,0.5867798,2.7485843,10.49752
1421110376263.00,1.0910811,2.4665709,9.893376
1421110376264.00,0.8946895,2.5795858,8.121811
1421110376265.00,0.14938934,2.5710535,7.639663
1421110376300.00,-0.17753083,2.876568,12.116553
1421110376301.00,1.1942166,2.51986,13.249996
1421110376318.00,1.6178356,1.7001644,10.086475
1421110376338.00,0.86385363,1.6498691,8.553812
1421110376358.00,0.39233413,1.4424005,6.3054876
1421110376379.00,0.7524852,0.8773256,6.712192
1421110376399.00,0.46508285,0.99722624,9.12218
1421110376418.00,-0.030386811,3.1948063,10.8876095
1421110376443.00,-2.787204,4.3547444,13.244159
1421110376459.00,-0.9383986,6.1839404,5.576803
1421110376484.00,1.6220269,6.7412314,5.887108
1421110376499.00,0.2749782,4.5879593,7.1895494
1421110376574.00,1.0235715,3.7119808,7.5655675
1421110376575.00,0.90187454,3.0725107,6.151907
1421110376577.00,0.6746471,1.3810282,4.407734
1421110376578.00,2.9084518,1.8703606,6.6187863
1421110376651.00,4.3987527,0.6557863,6.6199837
1421110376654.00,3.7377274,-0.5442682,7.7164536
1421110376655.00,1.0693762,0.013771363,4.8362927
1421110376658.00,1.909579,-0.67210233,6.4065275
1421110376678.00,3.934119,-0.5664221,5.5332437
1421110376698.00,5.1224976,-0.34877473,6.409222
1421110376718.00,4.4483,-0.8637039,7.8621006
1421110376739.00,4.681365,-1.3968952,8.076156
1421110376758.00,6.1501107,-1.3748909,5.9734783
1421110376800.00,8.291258,-1.4413527,5.5780005
1421110376803.00,8.76637,-1.6908838,7.355105
1421110376823.00,10.153087,-2.4993525,8.627609
1421110376839.00,13.736185,-2.686613,7.706574
1421110376868.00,15.902331,-2.4364834,5.7197556
1421110376881.00,15.594721,-2.227967,4.4873686
1421110376900.00,14.558725,-2.4810905,4.4484496
1421110377020.00,15.5849905,-2.6664052,3.6178267
1421110377020.00,16.207994,-2.0070264,2.1032763
1421110377022.00,16.342117,-1.8512005,0.52346146
1421110377027.00,14.2339,-1.3970448,-0.04580475
1421110377028.00,12.130923,-3.1268477,-1.5658937
1421110377038.00,10.849439,-3.1802866,-0.51178575
1421110377039.00,9.43024,-2.4526496,2.8264225
1421110377071.00,8.225395,-2.7497818,3.8703516
1421110377089.00,6.4545774,-2.4315436,3.3585658
1421110377110.00,5.7043376,-2.7205925,2.3538551
1421110377120.00,6.7975144,-2.396217,2.5897646
1421110377141.00,8.556656,-1.6491207,1.7100439
1421110377159.00,9.191636,-0.73871386,-0.45834687
1421110377245.00,8.392597,-0.80233157,-1.1362871
1421110377247.00,7.089707,-1.5012282,-0.23725662
1421110377248.00,6.279292,-1.4105169,0.37766466
1421110377249.00,7.8155475,-0.94678116,0.7192543
1421110377270.00,10.624606,-1.1726614,0.7212002
1421110377279.00,10.317595,-1.0964699,-1.4774277
1421110377300.00,9.267079,-1.4946419,-2.2990692
1421110377319.00,7.7073226,-2.4950116,-0.2508783
1421110377339.00,5.7502923,-3.8788838,1.2952565
1421110377362.00,4.107309,-5.015919,0.6542894
1421110377384.00,1.2946577,-4.77507,-0.0291893
1421110377399.00,6.7153354,-4.189338,-2.6827211
1421110377419.00,4.807553,-7.0726423,-2.1850061
1421110377439.00,2.287543,-9.830657,-1.8491048
1421110377459.00,4.9527507,-9.195378,2.379901
1421110377481.00,7.028784,-12.391532,-1.1660751
1421110377498.00,5.8805213,-12.655882,-4.4584785
1421110377566.00,5.83786,-8.927884,-3.5997143
1421110377567.00,3.577261,-6.3478494,0.25117767
1421110377568.00,1.2338841,-5.680238,2.4472609
1421110377579.00,0.57794815,-6.02048,-0.2880011
1421110377598.00,-0.4643344,-10.171349,-3.4346077
1421110377619.00,2.3400838,-9.782607,-0.99333435
1421110377638.00,1.527274,-11.294613,-1.2665162
1421110377660.00,1.4687457,-12.435241,-1.0109977
1421110377683.00,1.6813037,-11.609259,-0.00239502
1421110377706.00,1.0142908,-9.503288,-1.1204201
1421110377721.00,0.49427214,-6.4840665,-1.287772
1421110377740.00,-0.47930327,-4.4538383,0.98165864
1421110377760.00,-1.2307407,-2.501598,1.1602373
1421110377780.00,-1.4394068,-1.9519409,-0.43484575
1421110377799.00,-1.2220588,-1.8871257,-0.94558364
1421110377819.00,-2.1650977,-3.9918988,-0.14355148
1421110377897.00,-3.177143,-8.393046,1.3784834
1421110377898.00,-2.037114,-4.877457,2.4204667
1421110377899.00,-9.745634,-14.105168,3.6289036
1421110377900.00,-5.7462506,-18.83623,2.136058
1421110377919.00,0.03876938,-8.118368,0.71162015
1421110377939.00,0.4035608,-3.0678704,-1.729204
1421110377959.00,-2.0892055,-9.148226,-1.3662089
1421110377981.00,-4.2141867,-10.741064,-0.47855484
1421110377998.00,-3.3513808,-8.558453,-0.13696519
1421110378020.00,-3.4212854,-9.417217,1.1744577
1421110378040.00,-4.5310774,-10.124197,2.2448816
1421110378059.00,-3.710933,-8.641979,1.6789087
1421110378079.00,-3.020868,-9.619745,-0.31748977
1421110378098.00,-2.6149123,-9.52619,-1.0532098
1421110378119.00,-2.411635,-9.329499,-0.2309697
1421110378138.00,-2.5095315,-9.451345,0.6065387
1421110378159.00,-2.5423133,-9.51167,0.6066884
1421110378215.00,-2.6955945,-9.4032955,0.50579816
1421110378217.00,-2.7436445,-9.517808,0.37062928
1421110378218.00,-2.5291407,-9.490564,0.57944506
1421110378239.00,-2.1692889,-9.63696,0.6783893
1421110378259.00,-1.698967,-9.279054,0.8693921
1421110378279.00,-2.6041346,-9.416469,0.62031007
1421110378301.00,-3.0606852,-9.8254175,0.160616
1421110378320.00,-2.5035439,-9.673035,0.23336472
1421110378339.00,-2.289489,-9.470206,1.0282118
1421110378363.00,-2.1622536,-9.143886,1.4476396
1421110378379.00,-2.2037172,-9.279353,1.2497511
1421110378399.00,-2.50534,-9.512868,0.34443375
1421110378419.00,-2.7066715,-9.777517,0.104333036
1421110378440.00,-3.1352303,-9.301059,-0.06301895
1421110378459.00,-3.3651521,-9.034762,0.4989125
1421110378479.00,-3.304079,-9.023985,1.0479708
1421110378499.00,-2.8889923,-9.144035,0.87942123
1421110378556.00,-2.4768991,-9.248219,0.62584853
1421110378558.00,-2.3703208,-9.137598,0.47586045
1421110378559.00,-2.4384294,-9.036558,0.26539811
1421110378579.00,-2.3064039,-9.643995,0.27827132
1421110378599.00,-1.8058448,-10.095606,0.15462846
1421110378619.00,-1.9080821,-9.731264,-0.6065387
1421110378639.00,-2.6045837,-9.643696,-0.5309459
1421110378659.00,-3.315156,-9.182954,-0.30611342
1421110378680.00,-2.9764106,-9.2813,0.41329056
1421110378699.00,-2.023492,-9.803713,1.4624588
1421110378719.00,-1.6003221,-8.94929,1.1804452
1421110378739.00,-2.5207582,-8.940758,-0.7324269
1421110378759.00,-3.0955627,-9.388027,-1.2145743
1421110378779.00,-2.0270846,-10.0025,0.2920427
1421110378799.00,-2.0140617,-9.662107,-1.2530442
1421110378871.00,-2.11585,-9.376501,-2.1285737
1421110378872.00,-3.1650183,-8.513396,-1.4489868
1421110378873.00,-3.7519479,-8.639733,0.05852829
1421110378882.00,-3.3641043,-9.207204,0.45729905
1421110378899.00,-2.3532565,-9.500593,0.05149292
1421110378919.00,-2.038012,-9.745035,-1.5519726
1421110378938.00,-2.4893234,-9.229807,-2.1862037
1421110378958.00,-2.991529,-8.941806,-1.545087
1421110378979.00,-2.3523583,-9.371412,-1.4171032
1421110379011.00,-1.5343094,-10.144105,-2.0219953
1421110379022.00,-0.27258316,-9.992022,-0.76356214
1421110379042.00,-2.845882,-8.332871,-2.893034
1421110379059.00,-3.420537,-8.285271,0.32198045
1421110379079.00,-3.1135254,-9.2923765,0.84768724
1421110379102.00,-2.4665709,-9.956994,-2.1113594
1421110379119.00,-2.7887008,-10.077494,-2.997816
1421110379139.00,-3.201692,-9.56945,-1.7661772
1421110379204.00,-3.3208442,-9.235644,-1.1686199
1421110379206.00,-3.3587155,-9.223669,-1.0126442
1421110379207.00,-3.121459,-9.245075,-0.72015244
1421110379219.00,-3.0027556,-9.216334,-0.44128236
1421110379239.00,-3.0005105,-9.250014,-0.37721556
1421110379259.00,-2.7819648,-9.164093,-0.5562433
1421110379279.00,-2.8274703,-9.235644,-0.37332368
1421110379299.00,-2.9187803,-9.322913,-0.33245865
1421110379319.00,-2.9807515,-9.432485,-0.35072067
1421110379340.00,-2.8392956,-9.388476,-0.6297405
1421110379359.00,-2.835254,-9.307645,-0.58588165
1421110379379.00,-3.0114377,-9.289383,-0.52855086
1421110379400.00,-3.2192056,-9.384884,-0.5556445
1421110379419.00,-3.26516,-9.120085,-0.6399193
1421110379439.00,-3.1840289,-9.126072,-0.6149213
1421110379501.00,-3.0035043,-9.299711,-0.4791536
1421110379502.00,-2.8133996,-9.389075,-0.7203021
1421110379503.00,-2.7999275,-9.193881,-0.85786605
1421110379525.00,-2.694397,-9.257349,-0.64605653
1421110379539.00,-2.7993288,-9.331594,-0.7312294
1421110379559.00,-2.6948462,-9.289682,-0.800685
1421110379579.00,-2.6985884,-9.4104805,-0.8186476
1421110379605.00,-2.9186306,-9.407337,-0.80367875
1421110379622.00,-2.876568,-9.385932,-1.0988649
1421110379642.00,-2.8801606,-9.51197,-0.82238984
1421110379659.00,-2.845882,-9.395661,-0.6610254
1421110379679.00,-2.8750713,-9.273366,-0.5629793
1421110379699.00,-3.0599368,-9.179212,-0.5144801
1421110379719.00,-2.9618907,-9.34836,-0.62734544
1421110379742.00,-2.8602521,-9.240584,-0.6538403
1421110379759.00,-2.9581485,-9.304801,-0.5749544
1421110379835.00,-3.094066,-9.197024,-0.5831873
1421110379836.00,-2.8798614,-9.160201,-0.7683522
1421110379837.00,-2.787653,-9.16574,-0.5999524
1421110379839.00,-2.8803103,-9.197773,-0.64845157
1421110379863.00,-3.0481114,-9.26199,-0.4643344
1421110379880.00,-3.1070888,-9.304801,-0.2972818
1421110379899.00,-3.228636,-9.163494,-0.47930327
1421110379920.00,-3.1109807,-9.316626,-0.6212082
1421110379940.00,-3.0626311,-9.325158,-0.45310774
1421110379961.00,-2.9647348,-9.177416,-0.36209702
1421110379980.00,-2.8538156,-9.200467,-0.4182303
1421110379999.00,-2.7815158,-9.361084,-0.608784
1421110380019.00,-2.7705886,-9.310339,-0.47406417
1421110380039.00,-2.6508377,-9.340127,-0.3847
1421110380064.00,-2.6364675,-9.397159,-0.2694397
1421110380080.00,-2.8111541,-9.368867,-0.38125718
1421110380147.00,-2.7990294,-9.349408,-0.47301635
1421110380148.00,-2.8214827,-9.217233,-0.35131943
1421110380149.00,-2.8858488,-9.201815,-0.47211823
1421110380159.00,-2.7375073,-9.411379,-0.38365218
1421110380179.00,-2.8345056,-9.369765,-0.25926086
1421110380199.00,-3.0201197,-9.380094,-0.21136047
1421110380220.00,-2.9163854,-9.27621,-0.19534378
1421110380239.00,-2.7925928,-9.48802,-0.105680235
1421110380260.00,-2.6197023,-9.512568,-0.07993378
1421110380280.00,-2.945874,-9.400901,0.043110352
1421110380300.00,-2.8493247,-9.429341,0.15492782
1421110380319.00,-3.090174,-9.356294,0.26794282
1421110380341.00,-3.2126193,-9.232202,0.29548553
1421110380359.00,-3.1707065,-9.225166,0.27931917
1421110380383.00,-3.3042288,-9.335486,0.30626312
1421110380400.00,-3.5423837,-9.332643,0.43903702
1421110380419.00,-3.5554066,-9.225166,0.49427214
1421110380481.00,-3.5262172,-9.106762,0.61522067
1421110380482.00,-3.2644117,-9.095237,0.59216857
1421110380483.00,-2.8336074,-9.216784,0.41448808
1421110380507.00,-2.7879524,-9.317823,0.22138962
1421110380519.00,-3.0385313,-9.4193125,0.14310242
1421110380539.00,-3.342549,-9.398655,-0.064815216
1421110380560.00,-3.3667986,-9.308244,-0.09340576
1421110380580.00,-2.9469218,-9.354048,-0.21959335
1421110380608.00,-2.8316615,-9.430539,-0.13322297
1421110380622.00,-2.8903396,-9.466314,-0.004490661
1421110380639.00,-3.0213172,-9.26184,0.15822098
1421110380660.00,-3.0288017,-9.347911,0.14310242
1421110380679.00,-2.930905,-9.249715,-0.008382568
1421110380699.00,-2.9879365,-9.3083935,0.17947678
1421110380720.00,-2.994373,-9.21888,0.40865022
1421110380740.00,-3.0029054,-9.179661,0.21450394
1421110380759.00,-3.0460157,-9.308244,0.10059082
1421110380841.00,-3.13059,-9.364227,0.21585113
1421110380842.00,-3.0689182,-9.349109,0.2189946
1421110380843.00,-2.9479697,-9.454639,0.1513353
1421110380844.00,-2.9491673,-9.39641,0.29847932
1421110380860.00,-2.9657826,-9.368119,0.3544629
1421110380879.00,-2.9081526,-9.434581,0.3516188
1421110380900.00,-2.689158,-9.431288,0.32542327
1421110380919.00,-2.6719437,-9.332792,0.23785537
1421110380942.00,-2.6884093,-9.420211,0.24459137
1421110380960.00,-2.8107052,-9.369765,0.22812562
1421110380979.00,-2.6524842,-9.372311,0.006735993
1421110381000.00,-2.7714868,-9.421108,-0.17453705
1421110381020.00,-2.8243268,-9.401649,-0.016166382
1421110381039.00,-2.8821065,-9.3533,0.14968872
1421110381060.00,-2.8894415,-9.365574,0.14908996
1421110381081.00,-2.8686347,-9.350006,0.36524048
1421110381102.00,-2.8889923,-9.295819,0.40056702
1421110381167.00,-2.9376411,-9.437125,0.14923966
1421110381168.00,-2.8994706,-9.245673,-0.067359924
1421110381169.00,-3.0006602,-9.364676,0.321232
1421110381180.00,-3.174299,-9.26169,0.29129425
1421110381200.00,-3.2953973,-9.265133,0.25806335
1421110381220.00,-3.3295262,-9.159752,0.26569748
1421110381239.00,-3.379672,-9.231453,0.37107834
1421110381260.00,-3.1725028,-9.237591,0.4219725
1421110381281.00,-3.083438,-9.259894,0.30042526
1421110381299.00,-3.1413674,-9.378448,0.33769774
1421110381320.00,-2.9951217,-9.300759,0.24294479
1421110381340.00,-2.8738737,-9.338331,0.07544312
1421110381359.00,-2.7547216,-9.302555,-0.17229171
1421110381380.00,-2.8042686,-9.392368,-0.022453308
1421110381400.00,-2.854564,-9.345067,0.123343505
1421110381469.00,-2.8529174,-9.475595,0.2505789
1421110381472.00,-2.8922853,-9.230405,0.25911117
1421110381473.00,-3.0476623,-9.331295,0.1580713
1421110381488.00,-2.8333082,-9.552984,-0.050594788
1421110381500.00,-2.8635452,-9.4684105,-0.065713346
1421110381520.00,-2.84678,-9.215735,-0.061522063
1421110381541.00,-3.01997,-9.282646,0.067210235
1421110381560.00,-3.0505064,-9.340127,0.014968872
1421110381580.00,-2.9909303,-9.323662,-0.06316864
1421110381601.00,-3.0674212,-9.387877,0.10867401
1421110381619.00,-2.7412496,-9.388476,0.04535568
1421110381640.00,-2.3016138,-9.532927,-0.31748977
1421110381660.00,-2.2613475,-9.464668,-0.17498611
1421110381680.00,-2.3504124,-9.147778,-0.20672013
1421110381701.00,-2.6427543,-9.117241,-0.19264938
1421110381720.00,-3.1513968,-9.407038,0.024848327
1421110381788.00,-3.285368,-9.487122,-0.104033664
1421110381789.00,-3.0403275,-9.520652,-0.37916154
1421110381790.00,-2.776127,-9.776171,-0.33754808
1421110381800.00,-3.1765444,-9.8463745,-0.13037887
1421110381820.00,-3.2816257,-9.869576,-0.14010864
1421110381840.00,-3.2135174,-8.640632,-0.14923966
1421110381860.00,-3.2169602,-8.621771,0.6481522
1421110381880.00,-2.69769,-9.210497,0.61686724
1421110381900.00,-2.6098228,-9.474398,0.255818
1421110381924.00,-2.2189856,-9.30031,0.27617568
1421110381940.00,-2.6021888,-8.953331,0.3025209
1421110381959.00,-3.6479142,-9.31453,0.19803818
1421110381980.00,-4.1272173,-9.283844,0.07484436
1421110382001.00,-3.5509157,-9.394614,-0.5230124
1421110382020.00,-2.72179,-9.24253,-1.0710227
1421110382040.00,-2.5622218,-9.029074,-0.5734575
1421110382059.00,-2.94782,-9.177416,0.122894436
1421110382413.00,-3.6536024,-9.19448,0.41104522
1421110382413.00,-3.4985247,-9.379046,0.12723541
1421110382415.00,-2.6834698,-9.336834,-0.8384065
1421110382417.00,-2.6860144,-9.282946,-1.1198213
1421110382418.00,-3.2322285,-9.060359,-0.8183482
1421110382419.00,-3.9194496,-9.144484,-0.120948486
1421110382420.00,-4.113745,-9.186546,0.123193815
1421110382421.00,-3.7794905,-9.114098,-0.41882905
1421110382422.00,-2.942581,-9.296119,-0.8918454
1421110382423.00,-2.4369323,-9.419911,-0.62929136
1421110382425.00,-2.3382876,-9.445209,-0.3385959
1421110382426.00,-2.8544142,-9.238338,-0.29937744
1421110382427.00,-3.082989,-9.3083935,-0.28096572
1421110382429.00,-3.5827994,-9.134155,-0.1633104
1421110382504.00,-3.523822,-9.211694,-0.34862503
1421110382505.00,-3.2049851,-9.311387,-0.25536895
1421110382506.00,-3.1436129,-9.180559,0.03173401
1421110382506.00,-3.016976,-9.16589,-0.006586304
1421110382524.00,-3.004103,-9.154513,-0.29563522
1421110382540.00,-3.2558794,-9.311836,-0.25147706
1421110382560.00,-3.4141004,-9.272617,-0.19818787
1421110382580.00,-3.299888,-9.389674,-0.3161426
1421110382614.00,-3.2606695,-9.287886,-0.4034111
1421110382620.00,-3.24121,-9.191486,-0.24893235
1421110382640.00,-3.0870304,-9.23295,-0.11825409
1421110382660.00,-3.1817834,-9.184601,-0.033679962
1421110382680.00,-3.1223571,-9.315279,-0.04700226
1421110382763.00,-3.084935,-9.249266,-0.16555573
1421110382763.00,-3.315755,-9.288784,-0.13516891
1421110382764.00,-3.3696427,-9.331744,-0.3568579
1421110382765.00,-3.2808774,-9.293724,-0.2745291
1421110382785.00,-3.2448025,-9.313931,-0.314496
1421110382800.00,-3.213817,-9.306597,-0.34937346
1421110382820.00,-3.3293765,-9.335486,-0.28874955
1421110382840.00,-3.2519875,-9.303304,-0.11885285
1421110382860.00,-3.1620245,-9.185947,-0.21794678
1421110382881.00,-3.3070729,-9.203911,-0.16765137
1421110382900.00,-3.2793806,-9.263337,-0.24578887
1421110382920.00,-3.25558,-9.204808,-0.17633331
1421110382940.00,-3.2600706,-9.287137,-0.30117372
1421110382960.00,-3.123854,-9.191337,-0.23171814
1421110382980.00,-3.1025982,-9.204958,-0.4047583
1421110383000.00,-3.1540911,-9.181756,-0.25447083
1421110383020.00,-3.2885115,-9.401949,-0.32841706
1421110383088.00,-3.3221915,-9.280551,-0.25806335
1421110383089.00,-3.3765285,-9.18026,-0.16869919
1421110383090.00,-3.2244446,-9.309441,-0.27168503
1421110383100.00,-3.0955627,-9.243428,-0.34593064
1421110383120.00,-3.2837214,-9.233399,-0.23052064
1421110383140.00,-3.323838,-9.176068,-0.2336641
1421110383161.00,-3.3533268,-9.236842,-0.38634658
1421110383180.00,-3.253185,-9.288185,-0.42706192
1421110383211.00,-3.380121,-9.235495,-0.27153534
1421110383222.00,-3.3648527,-9.163195,-0.33380586
1421110383242.00,-3.3073723,-9.24268,-0.40236327
1421110383260.00,-3.2124696,-9.089548,-0.36539018
1421110383280.00,-3.1620245,-9.251512,-0.2772235
1421110383301.00,-3.1732512,-9.243877,-0.26210496
1421110383324.00,-3.2777338,-9.339678,-0.38065842
1421110383342.00,-3.3534765,-9.329948,-0.4035608
1421110383364.00,-3.336861,-9.239536,-0.41448808
1421110383384.00,-3.2030392,-9.144783,-0.45161086
1421110383454.00,-3.2498918,-9.426497,-0.432301
1421110383455.00,-3.1332843,-9.269175,-0.30596375
1421110383456.00,-3.2000456,-9.1621475,-0.30850846
1421110383460.00,-3.3003368,-9.26184,-0.41867936
1421110383481.00,-3.286266,-9.297017,-0.30566436
1421110383500.00,-3.3221915,-9.131461,-0.5480104
1421110383520.00,-3.278183,-9.211993,-0.5019063
1421110383540.00,-3.0647268,-9.311387,-0.3939807
1421110383560.00,-3.2347732,-9.2907295,-0.3221301
1421110383580.00,-3.222798,-9.231752,-0.28066635
1421110383601.00,-3.2049851,-9.201216,-0.29039612
1421110383620.00,-3.1864238,-9.216185,-0.43574387
1421110383640.00,-3.3105156,-9.268576,-0.4540059
1421110383662.00,-3.3745825,-9.315728,-0.38799316
1421110383682.00,-3.3828154,-9.363179,-0.39592665
1421110383743.00,-3.2106733,-9.267379,-0.39068756
1421110383744.00,-3.2082784,-9.1608,-0.31404695
1421110383745.00,-3.2832725,-9.253307,-0.38305342
1421110383765.00,-3.0770013,-9.260193,-0.3237767
1421110383780.00,-3.396886,-9.2328005,-0.24054977
1421110383800.00,-3.0796957,-9.163045,-0.35386413
1421110383824.00,-3.2361205,-9.306896,-0.44981462
1421110383840.00,-3.0948143,-9.193132,-0.39188507
1421110383861.00,-3.176245,-9.333691,-0.41134462
1421110383881.00,-3.3241374,-9.310189,-0.38544846
1421110383900.00,-3.244503,-9.3806925,-0.41478744
1421110383920.00,-3.4037719,-9.365274,-0.49681687
1421110383940.00,-3.299289,-9.315878,-0.41344026
1421110383960.00,-3.166515,-9.166339,-0.33769774
1421110383981.00,-3.2997382,-9.254655,-0.24429199
1421110384001.00,-3.2858171,-9.22322,-0.32632142
1421110384057.00,-3.2567775,-9.273665,-0.35131943
1421110384060.00,-3.2645614,-9.306896,-0.2787204
1421110384061.00,-3.2482452,-9.154214,-0.3171904
1421110384080.00,-3.1433134,-9.312136,-0.42751098
1421110384100.00,-3.216062,-9.226513,-0.40924895
1421110384120.00,-3.322491,-9.346414,-0.41733214
1421110384140.00,-3.2462993,-9.156609,-0.35146913
1421110384160.00,-3.131937,-9.302555,-0.5144801
1421110384180.00,-3.237767,-9.233997,-0.44113266
1421110384200.00,-3.256478,-9.196277,-0.34862503
1421110384220.00,-3.318,-9.182804,-0.22498214
1421110384242.00,-3.3236883,-9.317674,-0.40056702
1421110384260.00,-3.4200878,-9.214539,-0.2415976
1421110384285.00,-3.3962874,-9.248668,-0.4035608
1421110384304.00,-3.2900083,-9.408834,-0.44697052
1421110384322.00,-3.257526,-9.338929,-0.42242157
1421110384343.00,-3.1808853,-9.294322,-0.23950195
1421110384422.00,-3.2362702,-9.204958,-0.31030473
1421110384425.00,-3.3299754,-9.2118435,-0.28216323
1421110384426.00,-3.3135095,-9.280551,-0.3743715
1421110384427.00,-3.2997382,-9.267677,-0.44951522
1421110384442.00,-3.2886612,-9.129664,-0.42242157
1421110384463.00,-3.1316378,-9.217382,-0.23052064
1421110384481.00,-3.2236962,-9.101374,-0.3106041
1421110384501.00,-3.1886692,-9.26154,-0.3676355
1421110384520.00,-3.314707,-9.239087,-0.35371444
1421110384540.00,-3.1989977,-9.297615,-0.41643402
1421110384561.00,-3.1989977,-9.269624,-0.3930826
1421110384581.00,-3.2070808,-9.1483755,-0.40430924
1421110384600.00,-3.2605197,-9.383686,-0.35266662
1421110384620.00,-3.331622,-9.331594,-0.26045838
1421110384641.00,-3.263214,-9.17038,-0.27797195
1421110384663.00,-3.4073644,-9.203162,-0.35775605
1421110384680.00,-3.2832725,-9.3751545,-0.41149428
1421110384748.00,-3.2539334,-9.192085,-0.33141083
1421110384749.00,-3.3474889,-9.161249,-0.36568955
1421110384749.00,-3.2735426,-9.293125,-0.45475432
1421110384761.00,-3.216062,-9.44431,-0.33739838
1421110384780.00,-3.1307397,-9.272318,-0.25911117
1421110384801.00,-3.238366,-9.339229,-0.3794609
1421110384820.00,-3.1114297,-9.372759,-0.27093658
1421110384840.00,-3.1422656,-9.272318,-0.3691324
1421110384860.00,-3.307971,-9.216933,-0.41044647
1421110384880.00,-3.2608192,-9.296718,-0.36449203
1421110384901.00,-3.2645614,-9.286838,-0.39877075
1421110384921.00,-3.319946,-9.227561,-0.5658234
1421110384940.00,-3.1630723,-9.19957,-0.39532793
1421110384961.00,-3.129991,-9.164842,-0.41568556
1421110385035.00,-3.2422576,-9.142388,-0.39457947
1421110385036.00,-3.257975,-9.195977,-0.3965254
1421110385036.00,-3.2513888,-9.240884,-0.4484674
1421110385042.00,-3.3196468,-9.251062,-0.5221143
1421110385067.00,-3.2304323,-9.234746,-0.35116974
1421110385081.00,-3.3310232,-9.19463,-0.35940263
1421110385100.00,-3.1111305,-9.395062,-0.41987687
1421110385121.00,-3.1427147,-9.321416,-0.5267546
1421110385140.00,-3.229085,-9.260343,-0.33994308
1421110385166.00,-3.3293765,-9.264384,-0.28605515
1421110385182.00,-3.3786242,-9.202713,-0.30446684
1421110385200.00,-3.171455,-9.187295,-0.3249742
1421110385220.00,-3.18822,-9.218281,-0.3598517
1421110385241.00,-3.257975,-9.25226,-0.3821553
1421110385260.00,-3.1518457,-9.307345,-0.38963974
1421110385280.00,-3.2566278,-9.190139,-0.42182282
1421110385301.00,-3.1928604,-9.240135,-0.36688706
1421110385320.00,-3.3476386,-9.175469,-0.3490741
1421110385381.00,-3.3401542,-9.236243,-0.3555107
1421110385382.00,-3.3672478,-9.148675,-0.3580554
1421110385383.00,-3.1626234,-9.244027,-0.40775207
1421110385402.00,-3.3271313,-9.132957,-0.45580214
1421110385420.00,-3.2720459,-9.196875,-0.36269578
1421110385440.00,-3.2621663,-9.139095,-0.42107436
1421110385460.00,-3.233875,-9.161549,-0.30476624
1421110385481.00,-3.1729517,-9.1814575,-0.32272887
1421110385501.00,-3.1934593,-9.248966,-0.3570076
1421110385520.00,-3.2064822,-9.3050995,-0.4179309
1421110385541.00,-3.162773,-9.285192,-0.53648436
1421110385564.00,-3.3159046,-9.254505,-0.5533992
1421110385580.00,-3.3144076,-9.227262,-0.43843827
1421110385602.00,-3.1777418,-9.313632,-0.59276736
1421110385620.00,-3.2307317,-9.370813,-0.5876779
1421110385706.00,-3.188819,-9.079519,-0.4378395
1421110385707.00,-3.3587155,-9.254505,-0.3797603
1421110385708.00,-3.282075,-9.191486,-0.45894563
1421110385709.00,-3.4319134,-9.051228,-0.28710297
1421110385729.00,-3.4630485,-9.091045,-0.20297791
1421110385741.00,-3.4606535,-9.131461,-0.55833894
1421110385762.00,-3.3401542,-9.288035,-0.68781966
1421110385780.00,-3.3175511,-9.143586,-0.66162413
1421110385800.00,-3.3997302,-9.214838,-0.49666718
1421110385821.00,-3.3471894,-9.134754,-0.41149428
1421110385841.00,-3.3121624,-9.216784,-0.48109955
1421110385861.00,-3.0561945,-9.172476,-0.64830184
1421110385881.00,-2.791994,-9.316775,-0.7294331
1421110385901.00,-2.6798773,-9.25705,-0.816552
1421110385921.00,-2.9177325,-9.433233,-0.78377014
1421110385940.00,-3.0770013,-9.35315,-0.6024971
1421110385960.00,-3.2359707,-9.2046585,-0.39607635
1421110386017.00,-3.3106654,-9.287137,-0.32078293
1421110386018.00,-3.1320868,-9.303753,-0.55863833
1421110386020.00,-3.1828313,-9.208251,-0.5530998
1421110386042.00,-3.033891,-9.149124,-0.3329077
1421110386061.00,-3.135829,-9.193881,-0.17453705
1421110386080.00,-3.059338,-9.392668,-0.40296203
1421110386100.00,-3.147355,-9.405691,-0.51178575
1421110386121.00,-3.0737083,-9.2134905,-0.44502458
1421110386143.00,-3.3337176,-9.239686,-0.4537065
1421110386162.00,-3.5000217,-9.18505,-0.11526032
1421110386194.00,-3.6055522,-9.139395,-0.023052063
1421110386204.00,-3.4024246,-9.254206,-0.28785142
1421110386221.00,-3.184328,-9.173524,-0.28830048
1421110386242.00,-3.3902998,-9.269923,-0.2523752
1421110386260.00,-3.489244,-9.143137,-0.16241226
1421110386281.00,-3.3894017,-9.158256,-0.1845662
1421110386338.00,-3.3061748,-9.173973,-0.14280304
1421110386340.00,-3.3265324,-9.158256,-0.1074765
1421110386341.00,-3.2930021,-9.179361,-0.104183346
1421110386361.00,-3.2389646,-9.291179,-0.061072998
1421110386381.00,-3.1380744,-9.196426,-0.09909394
1421110386400.00,-3.1951058,-9.205108,-0.11750565
1421110386421.00,-3.3371603,-9.209299,-0.12528946
1421110386442.00,-3.4167948,-9.258098,-0.1791774
1421110386460.00,-3.2103739,-9.258846,-0.37092865
1421110386481.00,-3.2546818,-9.436227,-0.40820113
1421110386504.00,-2.9710217,-9.357342,-0.29383895
1421110386524.00,-2.960394,-9.419612,-0.021106109
1421110386540.00,-3.074307,-9.342971,0.07604187
1421110386561.00,-2.998864,-9.097182,0.030386811
1421110386580.00,-2.835254,-9.27636,-0.11735596
1421110386601.00,-2.8605514,-9.398506,0.02799179
1421110386621.00,-2.9735665,-9.432634,-0.04805008
1421110386706.00,-3.0183234,-9.217832,-0.08187973
1421110386707.00,-2.9446764,-9.428593,-0.082628176
1421110386708.00,-3.2248938,-9.429641,-0.009131012
1421110386708.00,-3.4395475,-9.330248,0.120349735
1421110386726.00,-3.4658926,-9.311237,-0.005538483
1421110386740.00,-3.506608,-9.366921,-0.21779709
1421110386761.00,-3.499872,-9.344019,-0.14894028
1421110386781.00,-3.539689,-9.176218,-0.046253815
1421110386800.00,-3.4021254,-9.264684,-0.12933105
1421110386835.00,-3.2226484,-9.501941,-0.026045837
1421110386841.00,-3.205584,-9.421108,0.047451325
1421110386865.00,-2.9174333,-9.321865,-0.053438872
1421110386881.00,-2.8563602,-9.315578,-0.27138564
1421110386901.00,-2.7192452,-9.2416315,-0.27976823
1421110386921.00,-2.6093738,-9.416319,0.07873627
1421110386941.00,-2.7563682,-9.409733,-0.07619156
1421110387033.00,-2.51986,-9.476344,-0.29758117
1421110387035.00,-2.5810826,-9.279503,-0.34623
1421110387035.00,-2.7869046,-9.250613,-0.2969824
1421110387036.00,-2.7614574,-9.452843,-0.21255799
1421110387040.00,-2.8580067,-9.2239685,-0.2174977
1421110387061.00,-2.7755282,-9.27621,-0.34608033
1421110387082.00,-2.550097,-9.481433,-0.46134064
1421110387169.00,-2.5617728,-9.167386,-0.4219725
1421110387170.00,-2.5734484,-9.130862,-0.29608428
1421110387171.00,-2.5613236,-9.30046,-0.4698729
1421110387173.00,-2.1981788,-9.590706,-0.55160296
1421110387181.00,-2.0865111,-9.686657,-0.6101312
1421110387218.00,-2.161056,-9.680669,-0.58588165
1421110387225.00,-2.3309526,-9.308693,-0.6700067
1421110387251.00,-2.402504,-9.431138,-0.53423905
1421110387262.00,-2.54875,-9.390123,-0.49861312
1421110387280.00,-2.4412735,-9.390872,-0.49531996
1421110387354.00,-2.4771986,-9.509725,-0.53379
1421110387355.00,-2.581382,-9.572893,-0.28785142
1421110387356.00,-2.5975485,-9.590107,-0.09131012
1421110387362.00,-2.6228456,-9.514066,0.160616
1421110387381.00,-2.6021888,-9.452394,0.23037094
1421110387401.00,-2.6887088,-9.436377,0.32467484
1421110387424.00,-2.838697,-9.43024,0.4087999
1421110387441.00,-2.8364515,-9.369616,0.48813492
1421110387461.00,-2.848726,-9.341774,0.5108876
1421110387483.00,-2.9240196,-9.189091,0.5763016
1421110387501.00,-2.9888346,-9.426198,0.64979875
1421110387521.00,-2.886298,-9.347162,0.6753955
1421110387542.00,-2.8360026,-9.362131,0.57705003
1421110387563.00,-2.850672,-9.359437,0.5505551
1421110387581.00,-2.823728,-9.34327,0.57914567
1421110387601.00,-2.796335,-9.461525,0.5093907
1421110387682.00,-2.9337492,-9.536519,0.5707631
1421110387683.00,-2.7008336,-9.45419,0.62599826
1421110387684.00,-2.7484345,-9.280551,0.5108876
1421110387685.00,-2.911745,-9.398207,0.66821045
1421110387703.00,-2.9159362,-9.275461,0.7708969
1421110387722.00,-2.9798534,-9.400302,0.8292755
1421110387741.00,-2.8488758,-9.115893,0.76475966
1421110387761.00,-2.8045678,-9.170231,0.8833131
1421110387781.00,-2.9288094,-9.255853,0.9238788
1421110387801.00,-2.8803103,-9.312584,0.89169574
1421110387821.00,-2.9291089,-9.410181,0.77448946
1421110387841.00,-2.9026139,-9.31947,0.6578819
1421110387861.00,-2.915038,-9.282796,0.6927594
1421110387881.00,-2.866539,-9.209599,0.9595047
1421110387902.00,-2.908901,-9.310638,0.97432387
1421110387985.00,-2.9416828,-9.3172245,0.8285271
1421110387986.00,-2.705474,-9.380094,0.7337741
1421110387987.00,-2.67374,-9.284443,0.80053526
1421110387988.00,-2.7988796,-9.42485,0.9062155
1421110388009.00,-2.5727,-9.388476,0.82209045
1421110388022.00,-2.4292982,-9.247919,0.84873503
1421110388041.00,-2.5451574,-9.445209,0.9421408
1421110388061.00,-2.8615992,-9.366472,0.85562074
1421110388082.00,-2.9615912,-9.341025,0.70518357
1421110388101.00,-2.6304798,-9.428294,0.5918692
1421110388121.00,-2.6523345,-9.3630295,0.9048683
1421110388143.00,-3.0177245,-9.37695,0.9868977
1421110388161.00,-2.8481274,-9.282048,0.6692583
1421110388188.00,-2.4656725,-9.170829,0.8336165
1421110388203.00,-2.4465125,-9.2890835,0.92208254
1421110388225.00,-2.525099,-9.48278,0.80622345
1421110388243.00,-2.5990453,-9.466464,0.5575905
1421110388313.00,-2.7900481,-9.442065,0.5629793
1421110388314.00,-3.049309,-9.229358,0.7857161
1421110388315.00,-2.9318032,-9.369616,0.7702982
1421110388321.00,-2.863695,-9.47829,0.65878004
1421110388342.00,-2.7777736,-9.47799,0.5147795
1421110388361.00,-2.26973,-9.562116,0.37886214
1421110388382.00,-1.8371297,-9.470955,0.38320312
1421110388402.00,-1.7357904,-9.466314,0.54441786
1421110388421.00,-1.877396,-9.502689,0.6595285
1421110388442.00,-2.3508613,-9.519155,0.67584455
1421110388462.00,-2.5234525,-9.493109,0.61941195
1421110388481.00,-2.7786717,-9.374106,0.8041278
1421110388501.00,-2.8740234,-9.342373,0.85277665
1421110388521.00,-3.09691,-9.433383,0.9104068
1421110388545.00,-3.160827,-9.392219,0.9116043
1421110388562.00,-2.9906309,-9.344768,0.87552935
1421110388581.00,-2.8484266,-9.315878,0.9424402
1421110388601.00,-2.7125094,-9.403146,1.0758128
1421110388660.00,-2.647245,-9.371861,0.9289682
1421110388661.00,-2.4346871,-9.395062,0.80367875
1421110388662.00,-2.3897805,-9.553284,0.77299255
1421110388682.00,-2.4930656,-9.389375,0.7695497
1421110388701.00,-2.7087672,-9.339079,0.9491762
1421110388721.00,-2.9207263,-9.262738,0.6834787
1421110388742.00,-2.7571166,-9.337882,0.554447
1421110388761.00,-2.7689419,-9.254505,0.7909552
1421110388783.00,-2.9726684,-9.391919,0.7244934
1421110388801.00,-2.9446764,-9.413475,0.66312104
1421110388821.00,-2.599644,-9.383686,0.5893245
1421110388841.00,-2.6349707,-9.326805,0.7206015
1421110388861.00,-2.7295737,-9.26678,0.7557784
1421110388881.00,-2.8485763,-9.348061,0.76221496
1421110388901.00,-2.7180479,-9.341325,0.67225206
1421110388969.00,-2.6340723,-9.317524,0.62569886
1421110388969.00,-2.7057734,-9.286838,0.62554914
1421110388970.00,-2.5652156,-9.418714,0.68557435
1421110388981.00,-2.6080265,-9.419462,0.6966513
1421110389001.00,-2.5218058,-9.574539,0.5774991
1421110389022.00,-2.56312,-9.4121275,0.7461983
1421110389041.00,-2.7023306,-9.46856,0.70114195
1421110389061.00,-2.767445,-9.406738,0.57824755
1421110389084.00,-2.4770489,-9.4474535,0.47331575
1421110389104.00,-2.3472688,-9.421857,0.4179309
1421110389122.00,-2.3963668,-9.461525,0.68467623
1421110389142.00,-2.4749534,-9.4788885,0.6066884
1421110389162.00,-2.6719437,-9.509725,0.60489213
1421110389182.00,-2.6408083,-9.456435,0.6144722
1421110389201.00,-2.647245,-9.505683,0.78152484
1421110389276.00,-2.561623,-9.395661,0.861758
1421110389277.00,-2.764601,-9.389824,1.0529104
1421110389278.00,-2.9659324,-9.372909,0.938698
1421110389284.00,-2.8919861,-9.356144,0.91355026
1421110389312.00,-2.8315117,-9.265133,0.97177917
1421110389321.00,-2.9047096,-9.21858,1.0413845
1421110389341.00,-2.9463232,-9.407038,1.1684701
1421110389362.00,-2.9262648,-9.382639,1.0843451
1421110389381.00,-2.9024644,-9.286688,1.0813513
1421110389404.00,-2.8388467,-9.359138,1.0337503
1421110389427.00,-2.8542645,-9.383686,1.0353969
1421110389456.00,-2.772684,-9.485774,0.9900412
1421110389461.00,-2.6494904,-9.364227,1.0364447
1421110389481.00,-2.5888665,-9.376351,0.87942123
1421110389502.00,-2.497257,-9.331894,0.9216335
1421110389521.00,-2.5346792,-9.293275,1.2603791
1421110389541.00,-2.891537,-9.371113,0.9237291
1421110389564.00,-3.457061,-9.509126,0.9849518
1421110389642.00,-3.3856595,-9.197474,0.7209009
1421110389643.00,-2.9876373,-9.259595,0.31674135
1421110389644.00,-3.1169682,-9.548493,0.8265811
1421110389645.00,-3.3651521,-9.365125,1.7242644
1421110389664.00,-3.1243029,-9.268276,2.6177564
1421110389681.00,-3.1368768,-9.102721,1.9537371
1421110389701.00,-2.444267,-9.112151,1.1692185
1421110389721.00,-1.626817,-9.168883,0.7702982
1421110389741.00,-1.2689112,-9.486523,0.44277924
1421110389762.00,-0.73841447,-10.037976,0.42107436
1421110389781.00,-0.830473,-9.751921,0.032632142
1421110389801.00,-1.9613713,-9.451046,0.67644334
1421110389822.00,-3.0253587,-9.534123,1.9660116
1421110389841.00,-3.3864079,-9.396709,1.6754658
1421110389862.00,-3.2792308,-9.28579,0.54471725
1421110389913.00,-3.3308735,-9.390722,0.3797603
1421110389914.00,-3.2639625,-9.162297,0.60144925
1421110389941.00,-3.0061986,-9.080566,0.9557625
1421110389944.00,-2.183659,-9.415121,1.3361216
1421110389961.00,-1.940864,-9.539213,1.3400134
1421110389982.00,-2.335144,-9.44446,1.4335688
1421110390001.00,-2.578538,-9.175769,1.2497511
1421110390021.00,-2.5560846,-9.261241,1.192121
1421110390044.00,-2.4689658,-9.262139,1.1937675
1421110390062.00,-2.3400838,-9.206605,1.3787827
1421110390082.00,-2.2882915,-9.211096,1.4476396
1421110390102.00,-2.254312,-9.35764,1.5338603
1421110390121.00,-2.4575894,-9.267229,1.6158898
1421110390142.00,-2.5557852,-9.158555,1.5890955
1421110390162.00,-2.6541307,-9.276659,1.5362554
1421110390181.00,-2.8656409,-9.141041,1.4917978
1421110390201.00,-2.9398866,-9.188792,1.5473323
1421110390267.00,-2.8364515,-9.2554035,1.4079721
1421110390268.00,-2.8907886,-9.405541,1.294059
1421110390269.00,-2.9431796,-9.392219,1.2840298
1421110390286.00,-2.7815158,-9.499695,1.2051439
1421110390302.00,-2.6662555,-9.668394,0.97088104
1421110390322.00,-2.5432115,-9.466314,1.0109977
1421110390343.00,-2.8153455,-9.478589,1.145418
1421110390362.00,-2.7583141,-9.475296,1.121917
1421110390383.00,-2.7315197,-9.3771,1.1521541
1421110390402.00,-2.6417065,-9.365274,1.2609777
1421110390423.00,-2.6728418,-9.360485,1.4314733
1421110390441.00,-2.5893154,-9.33414,1.4870077
1421110390462.00,-2.5810826,-9.39132,1.637445
1421110390482.00,-2.6297314,-9.302256,1.5655943
1421110390502.00,-2.6036856,-9.217233,1.5141014
1421110390522.00,-2.5188122,-9.352252,1.3284874
1421110390542.00,-2.5090823,-9.3486595,1.3156142
1421110390609.00,-2.4899223,-9.359587,1.642684
1421110390610.00,-2.4495063,-9.423055,1.5346087
1421110390611.00,-2.5369244,-9.252858,1.4852115
1421110390623.00,-2.5168662,-9.219328,1.4072237
1421110390643.00,-2.6288333,-9.24762,1.5766712
1421110390663.00,-2.7391539,-9.382938,1.3669574
1421110390681.00,-2.5632696,-9.469608,1.4301261
1421110390706.00,-2.4912694,-9.257648,1.5437398
1421110390730.00,-2.6147625,-9.210497,1.5223343
1421110390742.00,-2.58722,-9.2923765,1.4162049
1421110390761.00,-2.6006918,-9.353748,1.2966037
1421110390783.00,-2.650688,-9.281749,1.3296849
1421110390802.00,-2.5562344,-9.460926,1.3684543
1421110390823.00,-2.4545956,-9.400901,1.3154645
1421110390842.00,-2.502047,-9.448352,1.2997471
1421110390862.00,-2.6033862,-9.443711,1.3418097
1421110390924.00,-2.6595194,-9.328601,1.3799803
1421110390925.00,-2.843936,-9.470655,1.3380675
1421110390926.00,-2.6915529,-9.334439,1.1943663
1421110390949.00,-2.6517358,-9.416169,1.2543914
1421110390962.00,-2.6890082,-9.292077,1.3473482
1421110390981.00,-2.66401,-9.370813,1.3774356
1421110391002.00,-2.713108,-9.21873,1.278192
1421110391021.00,-2.708318,-9.395062,1.3701009
1421110391042.00,-2.8219318,-9.406139,1.1907737
1421110391063.00,-2.845433,-9.27636,1.1255095
1421110391082.00,-2.746788,-9.399254,1.201701
1421110391109.00,-2.5756938,-9.347312,1.2801379
1421110391121.00,-2.728975,-9.303154,1.2795392
1421110391142.00,-2.8674371,-9.292975,1.2207115
1421110391162.00,-2.7879524,-9.358239,1.223406
1421110391234.00,-2.7556198,-9.433383,1.14931
1421110391235.00,-2.718347,-9.383836,1.2263997
1421110391236.00,-2.8774662,-9.487421,1.405128
1421110391242.00,-2.7836115,-9.3856325,1.1918216
1421110391262.00,-2.3861878,-9.34342,1.2287947
1421110391282.00,-2.2948778,-9.410031,1.2302916
1421110391302.00,-2.4170237,-9.430839,1.367107
1421110391322.00,-2.6165588,-9.35315,1.4022839
1421110391344.00,-2.5982969,-9.500743,1.2412189
1421110391362.00,-2.6541307,-9.351653,1.3422588
1421110391382.00,-2.4926167,-9.3365345,1.3452525
1421110391402.00,-2.4469614,-9.351503,1.1975098
1421110391422.00,-2.5527914,-9.395062,1.2534933
1421110391443.00,-2.7128086,-9.375753,1.4266832
1421110391467.00,-2.6758356,-9.362131,1.3088782
1421110391483.00,-2.5393195,-9.229358,1.2590318
1421110391502.00,-2.5087829,-9.167985,1.5274237
1421110391522.00,-2.586621,-9.213341,1.4260844
1421110391578.00,-2.67374,-9.204958,1.4293776
1421110391579.00,-2.4761508,-9.219627,1.2983999
1421110391587.00,-2.43319,-9.341924,1.1746074
1421110391603.00,-2.5771906,-9.351503,1.2301419
1421110391622.00,-2.4789948,-9.533226,1.3590239
1421110391642.00,-2.6394613,-9.461675,1.282982
1421110391662.00,-2.7027795,-9.547895,1.2891192
1421110391682.00,-2.5701554,-9.467213,1.1002121
1421110391714.00,-2.6225464,-9.534722,1.0710227
1421110391722.00,-2.6469457,-9.557325,1.0597961
1421110391742.00,-2.5385711,-9.426647,1.0505154
1421110391762.00,-2.6887088,-9.3083935,1.0942246
1421110391784.00,-2.650089,-9.303453,1.2482543
1421110391802.00,-2.5503964,-9.305698,1.2819343
1421110391822.00,-2.5295897,-9.219627,1.413361
1421110391890.00,-2.6768835,-9.209449,1.2891192
1421110391891.00,-2.613565,-9.288784,1.3793815
1421110391893.00,-2.792443,-9.366772,1.2522959
1421110391902.00,-2.7640023,-9.387428,1.192121
1421110391922.00,-2.830913,-9.403146,1.1683204
1421110391942.00,-2.6310787,-9.369765,1.1723621
1421110391962.00,-2.5447083,-9.396111,1.2819343
1421110391982.00,-2.5632696,-9.366772,1.2028985
1421110392004.00,-2.6695487,-9.475146,1.1222163
1421110392023.00,-2.6767337,-9.260792,1.1072475
1421110392042.00,-2.5391698,-9.319171,1.1597883
1421110392062.00,-2.4692652,-9.310938,1.179098
1421110392088.00,-2.5825796,-9.38698,1.3256433
1421110392102.00,-2.5921595,-9.267677,1.2716057
1421110392123.00,-2.7601104,-9.404344,1.2169693
1421110392142.00,-2.5935068,-9.349109,1.2020004
1421110392162.00,-2.6747878,-9.358988,1.1475137
1421110392236.00,-2.616409,-9.330697,1.2087364
1421110392237.00,-2.5114775,-9.242979,1.3254936
1421110392238.00,-2.5803342,-9.227561,1.3742921
1421110392242.00,-2.5230033,-9.448352,1.2707076
1421110392262.00,-2.6246421,-9.421557,1.1374846
1421110392282.00,-2.7485843,-9.439969,0.9687854
1421110392302.00,-2.604434,-9.427246,1.0786569
1421110392326.00,-2.558779,-9.485025,1.1332933
1421110392352.00,-2.4721093,-9.383088,1.1070977
1421110392362.00,-2.5385711,-9.4104805,1.1276051
1421110392382.00,-2.6926007,-9.345217,1.3335768
1421110392402.00,-2.6123676,-9.247919,1.2576846
1421110392422.00,-2.5334816,-9.260642,1.1668236
1421110392442.00,-2.4780967,-9.371712,1.2287947
1421110392462.00,-2.4923172,-9.364377,1.2406201
1421110392484.00,-2.672692,-9.399104,1.25993
1421110392502.00,-2.6917026,-9.403146,1.2244537
1421110392565.00,-2.5586293,-9.309441,1.2689112
1421110392566.00,-2.6209,-9.399853,1.2989987
1421110392567.00,-2.6550288,-9.496851,1.2201128
1421110392587.00,-2.5741968,-9.342671,1.144969
1421110392602.00,-2.5436604,-9.436526,1.1759546
1421110392622.00,-2.5460556,-9.305698,1.4605129
1421110392642.00,-2.491868,-9.282497,1.4498849
1421110392662.00,-2.4474106,-9.287137,1.5003301
1421110392682.00,-2.623744,-9.397758,1.3807287
1421110392704.00,-2.6264384,-9.413923,1.3421091
1421110392722.00,-2.753075,-9.402099,1.1367362
1421110392742.00,-2.6132658,-9.437724,1.2428654
1421110392765.00,-2.615511,-9.445957,1.161285
1421110392786.00,-2.515519,-9.526789,1.2284954
1421110392802.00,-2.56791,-9.513617,1.1511062
1421110392824.00,-2.5686584,-9.539363,1.2409195
1421110392891.00,-2.506388,-9.489516,1.2371773
1421110392892.00,-2.60159,-9.412876,1.327739
1421110392893.00,-2.5578809,-9.245823,1.2659175
1421110392902.00,-2.692002,-9.257499,1.2756473
1421110392923.00,-2.686613,-9.19957,1.4150075
1421110392943.00,-2.633773,-9.316626,1.4786252
1421110392963.00,-2.705923,-9.218131,1.3145664
1421110392982.00,-2.5727,-9.465417,1.443149
1421110393003.00,-2.5081842,-9.293125,1.3367202
1421110393022.00,-2.5899143,-9.38189,1.4967375
1421110393043.00,-2.552043,-9.450149,1.4287789
1421110393063.00,-2.7068212,-9.352701,1.4100678
1421110393083.00,-2.634821,-9.307046,1.3006454
1421110393102.00,-2.7093658,-9.329799,1.3000466
1421110393123.00,-2.5625212,-9.350156,1.2963043
1421110393187.00,-2.6673033,-9.393117,1.3178595
1421110393188.00,-2.6711953,-9.304202,1.4162049
1421110393189.00,-2.5601263,-9.413475,1.37534
1421110393208.00,-2.6828709,-9.320817,1.2467574
1421110393222.00,-2.7144554,-9.3244095,1.1762539
1421110393243.00,-2.6704469,-9.384135,1.2716057
1421110393262.00,-2.8166926,-9.374855,1.217119
1421110393283.00,-2.7831624,-9.354497,1.1846366
1421110393306.00,-2.6958938,-9.377549,1.2726535
1421110393327.00,-2.5962012,-9.300909,1.3162129
1421110393348.00,-2.5388703,-9.384734,1.3320799
1421110393363.00,-2.3436763,-9.28609,1.352737
1421110393382.00,-2.70248,-9.330847,1.2509487
1421110393403.00,-2.728975,-9.307046,1.2356803
1421110393423.00,-2.4771986,-9.39147,1.3701009
1421110393442.00,-2.5216563,-9.414223,1.3226495
1421110393463.00,-2.5978477,-9.33414,1.2370276
1421110393528.00,-2.7114615,-9.352701,1.2819343
1421110393529.00,-2.591411,-9.391769,1.163231
1421110393530.00,-2.6093738,-9.355246,1.0759625
1421110393542.00,-2.5780888,-9.401051,1.167123
1421110393565.00,-2.547253,-9.408685,1.1389815
1421110393586.00,-2.5709038,-9.341325,1.1349399
1421110393603.00,-2.5384214,-9.270223,1.3126204
1421110393625.00,-2.5339308,-9.206755,1.1960129
1421110393643.00,-2.6628127,-9.289383,1.1535013
1421110393663.00,-2.7075696,-9.442215,1.2907659
1421110393683.00,-2.6930497,-9.347761,1.2464579
1421110393703.00,-2.587669,-9.372161,1.2518468
1421110393723.00,-2.5740473,-9.330847,1.3124707
1421110393742.00,-2.5512946,-9.366023,1.2590318
1421110393763.00,-2.6417065,-9.430539,1.233435
1421110393834.00,-2.5759933,-9.407786,1.0147399
1421110393834.00,-2.6457481,-9.4012,1.0873389
1421110393836.00,-2.6973908,-9.476943,1.299298
1421110393843.00,-2.5721014,-9.339229,1.2624747
1421110393864.00,-2.6812243,-9.374106,1.181044
1421110393883.00,-2.681823,-9.352701,1.26951
1421110393904.00,-2.6557772,-9.29537,1.3307327
1421110393922.00,-2.5792863,-9.298813,1.2615765
1421110393943.00,-2.6949956,-9.421557,1.2272978
1421110393967.00,-2.6873617,-9.366921,1.1684701
1421110393984.00,-2.657424,-9.401799,1.2398716
1421110394018.00,-2.6414073,-9.311537,1.1723621
1421110394024.00,-2.67374,-9.390722,1.1954141
1421110394043.00,-2.7181976,-9.287886,1.3489947
1421110394065.00,-2.5762925,-9.43024,1.287772
1421110394082.00,-2.7830126,-9.421258,1.3245955
1421110394103.00,-2.6723928,-9.296418,1.2587324
1421110394177.00,-2.6632617,-9.385782,1.3557308
1421110394178.00,-2.6617649,-9.420959,1.3660593
1421110394179.00,-2.652634,-9.474697,1.2566369
1421110394182.00,-2.6933491,-9.383537,1.1713142
1421110394203.00,-2.672692,-9.364676,1.3181589
1421110394223.00,-2.6557772,-9.383388,1.1770024
1421110394242.00,-2.6319768,-9.505234,1.2211605
1421110394262.00,-2.6008415,-9.447603,1.1491603
1421110394283.00,-2.6596692,-9.334739,1.0990146
1421110394302.00,-2.6402097,-9.371263,1.0806029
1421110394323.00,-2.6107209,-9.399104,1.2063414
1421110394342.00,-2.6939478,-9.211096,1.305136
1421110394363.00,-2.735711,-9.364527,1.3049862
1421110394383.00,-2.645299,-9.326805,1.219514
1421110394406.00,-2.6060805,-9.188044,1.2105327
1421110394426.00,-2.639611,-9.330248,1.3494438
1421110394445.00,-2.7322683,-9.284293,1.2460089
1421110394515.00,-2.6854157,-9.289383,1.3377681
1421110394516.00,-2.7042763,-9.286688,1.3334271
1421110394516.00,-2.6744883,-9.395212,1.1711645
1421110394523.00,-2.5891657,-9.34821,1.1448194
1421110394542.00,-2.6544302,-9.341774,1.205593
1421110394563.00,-2.6354196,-9.349408,1.2157718
1421110394583.00,-2.6927505,-9.477691,1.1720626
1421110394602.00,-2.672692,-9.409433,1.1862831
1421110394629.00,-2.8178902,-9.368867,1.2886702
1421110394643.00,-2.7734327,-9.296718,1.3168117
1421110394662.00,-2.592908,-9.373957,1.2141252
1421110394684.00,-2.6791286,-9.42485,1.2930112
1421110394703.00,-2.7925928,-9.346414,1.2518468
1421110394723.00,-2.6939478,-9.4369755,1.2371773
1421110394744.00,-2.7476861,-9.41078,1.3219011
1421110394763.00,-2.6677523,-9.340426,1.2952565
1421110394785.00,-2.6930497,-9.282198,1.2737013
1421110394847.00,-2.709815,-9.284892,1.2446617
1421110394848.00,-2.708318,-9.3872795,1.424887
1421110394849.00,-2.6749375,-9.443711,1.3347744
1421110394868.00,-2.8198361,-9.3856325,1.3371693
1421110394883.00,-2.6451495,-9.374705,1.2909155
1421110394903.00,-2.755919,-9.399553,1.3819263
1421110394924.00,-2.8839028,-9.374556,1.4341676
1421110394945.00,-2.8005264,-9.371113,1.2576846
1421110394974.00,-2.7041268,-9.402099,1.2787907
1421110394983.00,-2.7204428,-9.320817,1.3891113
1421110395003.00,-2.5680597,-9.29567,1.3060341
1421110395023.00,-2.6556275,-9.399853,1.3204042
1421110395043.00,-2.581831,-9.374106,1.3045372
1421110395063.00,-2.6244924,-9.371412,1.2530442
1421110395083.00,-2.655478,-9.32905,1.3946499
1421110395103.00,-2.6161098,-9.414522,1.3621674
1421110395122.00,-2.610272,-9.340726,1.3371693
1421110395186.00,-2.5710535,-9.335936,1.3958473
1421110395187.00,-2.5973988,-9.203462,1.4006374
1421110395188.00,-2.615062,-9.402996,1.3861176
1421110395209.00,-2.609224,-9.323662,1.3097763
1421110395223.00,-2.6735902,-9.3630295,1.3754897
1421110395243.00,-2.7399023,-9.490564,1.3251942
1421110395264.00,-2.7460396,-9.58412,1.1452684
1421110395283.00,-2.789599,-9.5217,1.2005036
1421110395303.00,-2.7129583,-9.529334,1.1350895
1421110395324.00,-2.6213489,-9.436227,1.1443703
1421110395343.00,-2.657873,-9.419013,1.2470567
1421110395364.00,-2.5899143,-9.296867,1.2741504
1421110395383.00,-2.6232948,-9.366173,1.2684622
1421110395403.00,-2.5084836,-9.313782,1.315165
1421110395424.00,-2.5744963,-9.26663,1.267115
1421110395481.00,-2.5729995,-9.273216,1.2888199
1421110395482.00,-2.6830206,-9.282198,1.3736933
1421110395483.00,-2.6211991,-9.31468,1.4001883
1421110395504.00,-2.621798,-9.342971,1.3669574
1421110395523.00,-2.6611662,-9.439221,1.3465997
1421110395543.00,-2.8374994,-9.336085,1.3449532
1421110395566.00,-2.6728418,-9.368119,1.3319303
1421110395584.00,-2.6961932,-9.34821,1.2745994
1421110395607.00,-2.7575655,-9.282497,1.3096266
1421110395623.00,-2.6312284,-9.312136,1.3638139
1421110395643.00,-2.5565336,-9.206755,1.3365706
1421110395663.00,-2.5887167,-9.271121,1.3539345
1421110395684.00,-2.6105714,-9.372011,1.4413527
1421110395703.00,-2.6089246,-9.300759,1.3672568
1421110395723.00,-2.5632696,-9.301956,1.3567786
1421110395743.00,-2.579885,-9.321416,1.4374608
1421110395807.00,-2.6622138,-9.235045,1.3774356
1421110395808.00,-2.7373576,-9.222173,1.2975018
1421110395809.00,-2.7493327,-9.239237,1.273851
1421110395828.00,-2.7144554,-9.167236,1.3310322
1421110395843.00,-2.6951454,-9.303453,1.2704082
1421110395863.00,-2.756817,-9.417815,1.3681549
1421110395883.00,-2.690056,-9.461076,1.2967534
1421110395903.00,-2.7125094,-9.36273,1.2120296
1421110395923.00,-2.8683352,-9.420361,1.1994557
1421110395947.00,-2.8119025,-9.221274,1.1127859
1421110395970.00,-2.8003767,-9.337433,1.3028907
1421110395983.00,-2.728526,-9.394913,1.1707155
1421110396003.00,-2.7936406,-9.391919,1.2502002
1421110396024.00,-2.9154873,-9.394015,1.25993
1421110396043.00,-2.8972251,-9.200169,1.2701088
1421110396064.00,-2.7629545,-9.275013,1.273402
1421110396083.00,-2.8033705,-9.266031,1.3037888
1421110396150.00,-2.8639944,-9.161998,1.2843292
1421110396151.00,-2.874323,-9.221424,1.334924
1421110396152.00,-2.685715,-9.239387,1.2591815
1421110396164.00,-2.6699977,-9.3292,1.257535
1421110396184.00,-2.6137147,-9.3012085,1.2564871
1421110396203.00,-2.6304798,-9.445209,1.2928615
1421110396223.00,-2.7979815,-9.317075,1.472937
1421110396243.00,-2.8262727,-9.248219,1.422941
1421110396263.00,-2.660717,-9.320817,1.3641133
1421110396283.00,-2.656825,-9.463321,1.3927039
1421110396303.00,-2.6384134,-9.452693,1.441203
1421110396323.00,-2.7304718,-9.338929,1.4227912
1421110396343.00,-2.7634034,-9.339229,1.4576688
1421110396364.00,-2.8047175,-9.316925,1.453178
1421110396384.00,-2.6949956,-9.327254,1.5323634
1421110396445.00,-2.879562,-9.331445,1.5435901
1421110396446.00,-2.8039691,-9.377998,1.510958
1421110396447.00,-2.7614574,-9.31962,1.5347584
1421110396468.00,-2.7204428,-9.369017,1.5085629
1421110396483.00,-2.853067,-9.394764,1.4458433
1421110396503.00,-2.7370582,-9.38683,1.4835649
1421110396523.00,-2.8967762,-9.1765175,1.5161971
1421110396543.00,-2.785707,-9.277258,1.3581258
1421110396565.00,-2.6903553,-9.226513,1.3775853
1421110396583.00,-2.751129,-9.249865,1.3427079
1421110396603.00,-2.791096,-9.345067,1.479224
1421110396623.00,-2.7144554,-9.271121,1.4242882
1421110396643.00,-2.8491752,-9.367221,1.4004877
1421110396663.00,-2.886298,-9.310339,1.4251863
1421110396684.00,-2.7861562,-9.264085,1.2769945
1421110396703.00,-2.7759774,-9.360335,1.2828324
1421110396760.00,-2.874323,-9.388776,1.287323
1421110396761.00,-2.8385472,-9.366921,1.3683046
1421110396762.00,-2.6931994,-9.307944,1.2768447
1421110396783.00,-2.7057734,-9.366023,1.283431
1421110396803.00,-2.7836115,-9.349857,1.3711487
1421110396823.00,-2.646796,-9.434281,1.3904586
1421110396844.00,-2.6499395,-9.5070305,1.4127622
1421110396863.00,-2.6369164,-9.476045,1.3040881
1421110396887.00,-2.7327173,-9.262139,1.4432987
1421110396904.00,-2.6906548,-9.292676,1.2961546
1421110396923.00,-2.8153455,-9.419911,1.479673
1421110396945.00,-2.798281,-9.529633,1.493145
1421110396963.00,-2.755919,-9.297466,1.4694942
1421110396983.00,-2.806364,-9.336684,1.4504837
1421110397004.00,-2.7740314,-9.27636,1.437311
1421110397023.00,-2.7378068,-9.341325,1.5118561
1421110397100.00,-2.7086174,-9.294472,1.3612692
1421110397101.00,-2.5084836,-9.082363,1.5115567
1421110397102.00,-2.5367746,-9.038055,1.4662011
1421110397103.00,-2.593357,-9.220526,1.4151572
1421110397123.00,-2.5638685,-9.354796,1.3605208
1421110397144.00,-2.6771827,-9.418863,1.5374528
1421110397164.00,-2.6728418,-9.540561,1.3364209
1421110397183.00,-2.6502388,-9.520802,1.2787907
1421110397203.00,-2.9355454,-9.472452,1.194965
1421110397226.00,-2.8503726,-9.395212,0.9698332
1421110397248.00,-2.7259812,-9.433982,0.95246935
1421110397263.00,-2.5740473,-9.44446,1.1981086
1421110397283.00,-2.3454726,-9.480835,1.3230987
1421110397303.00,-2.4007077,-9.32905,1.3698015
1421110397324.00,-2.6017396,-9.274414,1.5705341
1421110397344.00,-2.735711,-9.307345,1.3802797
1421110397365.00,-2.806364,-9.306297,1.3754897
1421110397424.00,-2.9324021,-9.288185,1.3442047
1421110397425.00,-2.9365933,-9.413325,1.3473482
1421110397426.00,-2.6018894,-9.372459,1.4000386
1421110397448.00,-2.845433,-9.193731,1.3314812
1421110397464.00,-2.674638,-9.2118435,1.2043954
1421110397484.00,-2.5987458,-9.475296,1.171913
1421110397504.00,-2.5372238,-9.448202,1.4054275
1421110397525.00,-2.6418562,-9.446556,1.4762301
1421110397545.00,-2.5551865,-9.274115,1.3650115
1421110397566.00,-2.64964,-9.296718,1.3449532
1421110397593.00,-2.7259812,-9.408984,1.2822336
1421110397606.00,-2.85651,-9.429192,1.4364129
1421110397623.00,-2.7466383,-9.205257,1.4540763
1421110397643.00,-2.7066715,-9.163195,1.4073733
1421110397664.00,-2.6041346,-9.151071,1.3247452
1421110397685.00,-2.5054898,-9.2747135,1.1340418
1421110397792.00,-2.4984543,-9.53113,1.319057
1421110397793.00,-2.5234525,-9.563612,1.3347744
1421110397794.00,-2.446213,-9.456285,1.2097843
1421110397795.00,-2.7038274,-9.516311,1.2210109
1421110397796.00,-2.725682,-9.435629,1.2585827
1421110397804.00,-2.858755,-9.225017,1.2130774
1421110397826.00,-2.834805,-9.332343,1.3133688
1421110397844.00,-2.8211832,-9.589359,1.4452446
1421110397863.00,-2.5412655,-9.862391,1.2856765
1421110397884.00,-2.4864793,-10.595267,0.7937993
1421110397903.00,-2.3201752,-9.6670475,0.7548802
1421110397924.00,-2.6902056,-8.231083,1.9917581
1421110397944.00,-3.5045123,-8.427026,2.6571245
1421110397963.00,-3.4200878,-8.631351,1.3973442
1421110397984.00,-3.112777,-8.590635,1.1133847
1421110398004.00,-2.6223967,-8.547825,1.33687
1421110398074.00,-2.4292982,-8.776699,1.5398479
1421110398080.00,-2.4824378,-9.028175,1.5163467
1421110398082.00,-2.4721093,-9.427845,1.5658937
1421110398083.00,-2.2829027,-9.596694,0.898282
1421110398103.00,-2.2631438,-9.980945,0.37347335
1421110398123.00,-2.122137,-9.91583,0.087118834
1421110398144.00,-2.1121078,-10.066417,0.330363
1421110398163.00,-2.3833437,-9.938433,0.8773256
1421110398187.00,-2.5430617,-9.571845,1.1704161
1421110398203.00,-2.5806336,-9.339378,1.171913
1421110398223.00,-2.7834618,-9.213191,1.3064831
1421110398245.00,-2.7101142,-8.994795,1.3519886
1421110398266.00,-2.4680676,-9.007219,1.4867084
1421110398285.00,-2.393373,-9.148675,1.4401551
1421110398307.00,-2.5716522,-9.252858,1.517694
1421110398326.00,-2.859354,-9.412876,1.4385086
1421110398345.00,-2.6171577,-9.506282,1.2648697
1421110398416.00,-2.5858727,-9.62274,1.0984159
1421110398417.00,-2.464625,-9.534123,1.0865904
1421110398418.00,-2.6421556,-9.514963,1.1319461
1421110398424.00,-2.6078768,-9.472752,1.0957215
1421110398443.00,-2.5192611,-9.425,1.2663666
1421110398464.00,-2.443818,-9.333092,1.3742921
1421110398484.00,-2.5161178,-9.427396,1.4641054
1421110398504.00,-2.744842,-9.342223,1.3241464
1421110398524.00,-2.8187883,-9.371113,1.4123131
1421110398544.00,-2.899171,-9.244177,1.4780264
1421110398564.00,-2.7168503,-9.289682,1.4672488
1421110398584.00,-2.681374,-9.292526,1.4573693
1421110398604.00,-2.7800188,-9.440119,1.5313156
1421110398624.00,-2.8351045,-9.3244095,1.5370038
1421110398644.00,-2.6867628,-9.455237,1.4250367
1421110398664.00,-2.7580147,-9.414522,1.5247293
1421110398733.00,-2.7680438,-9.314381,1.6130457
1421110398734.00,-2.6114695,-9.235944,1.6091537
1421110398735.00,-2.7548711,-9.223819,1.5560143
1421110398743.00,-2.6933491,-9.418564,1.6030165
1421110398765.00,-2.680925,-9.408685,1.5705341
1421110398784.00,-2.6834698,-9.307196,1.4980847
1421110398805.00,-2.6406586,-9.277557,1.5199393
1421110398824.00,-2.6563761,-9.290879,1.6025674
1421110398843.00,-2.7431955,-9.398506,1.6476238
1421110398865.00,-2.6442513,-9.366472,1.4805712
1421110398884.00,-2.6614654,-9.308842,1.4311738
1421110398907.00,-2.6708958,-9.286388,1.6042141
1421110398927.00,-2.7331665,-9.2432785,1.6103512
1421110398946.00,-2.723736,-9.2625885,1.429228
1421110398965.00,-2.7276278,-9.193282,1.4302757
1421110398984.00,-2.6391618,-9.307795,1.5278728
1421110399004.00,-2.4768991,-9.335337,1.4694942
1421110399025.00,-2.6125174,-9.242979,1.4976356
1421110399076.00,-2.6149123,-9.359138,1.3877641
1421110399077.00,-2.6521847,-9.503437,1.2931609
1421110399084.00,-2.6397605,-9.405691,1.3275893
1421110399104.00,-2.6327252,-9.455237,1.2903168
1421110399124.00,-2.5896149,-9.541907,1.1702664
1421110399144.00,-2.5108786,-9.549841,1.2960049
1421110399163.00,-2.5277934,-9.464369,1.4389577
1421110399185.00,-2.6048832,-9.433832,1.4136603
1421110399204.00,-2.4969575,-9.301956,1.4097683
1421110399224.00,-2.7410998,-9.17502,1.3633648
1421110399244.00,-2.6032364,-9.251961,1.2657678
1421110399264.00,-2.5514443,-9.272917,1.413361
1421110399284.00,-2.7071204,-9.320667,1.3668077
1421110399304.00,-2.743495,-9.271569,1.4211447
1421110399324.00,-2.588118,-9.329799,1.5111077
1421110399376.00,-2.7599607,-9.393716,1.5188915
1421110399377.00,-2.7238855,-9.174421,1.4073733
1421110399384.00,-2.6753864,-9.370364,1.455124
1421110399404.00,-2.7870543,-9.252858,1.447939
1421110399424.00,-2.696343,-9.283395,1.3895603
1421110399444.00,-2.7831624,-9.417965,1.4034815
1421110399467.00,-2.5999434,-9.352701,1.3138179
1421110399485.00,-2.7255323,-9.375903,1.2948074
1421110399506.00,-2.7171497,-9.186696,1.3630655
1421110399527.00,-2.4863296,-9.301657,1.3398638
1421110399544.00,-2.613116,-9.293574,1.3343253
1421110399564.00,-2.6283844,-9.427695,1.3286371
1421110399584.00,-2.6670039,-9.384584,1.2725039
1421110399604.00,-2.6979895,-9.508227,1.2356803
1421110399624.00,-2.60159,-9.402996,1.0978171
1421110399699.00,-2.7277775,-9.514215,1.0409354
1421110399703.00,-2.554438,-9.610914,1.0398875
1421110399704.00,-2.6167085,-9.681268,1.0548564
1421110399705.00,-2.5936565,-9.494606,1.2446617
1421110399724.00,-2.5685089,-9.353748,1.1726614
1421110399745.00,-2.635719,-9.254954,1.321452
1421110399764.00,-2.6363177,-9.250913,1.1963123
1421110399783.00,-2.6482928,-9.322614,1.0948234
1421110399810.00,-2.620301,-9.338032,1.2081376
1421110399827.00,-2.7180479,-9.335936,1.334924
1421110399844.00,-2.6656568,-9.303453,1.2998968
1421110399864.00,-2.7476861,-9.450149,1.2588822
1421110399884.00,-2.595303,-9.337433,1.2066407
1421110399905.00,-2.5574317,-9.32411,1.2186159
1421110399924.00,-2.6964927,-9.328601,1.2653188
1421110399944.00,-2.7800188,-9.2995615,1.2588822
1421110399964.00,-2.6764343,-9.347911,1.2933105
1421110400026.00,-2.762655,-9.393267,1.2602293
1421110400028.00,-2.8211832,-9.312435,1.241668
1421110400031.00,-2.670746,-9.377998,1.0981164
1421110400047.00,-2.7081683,-9.311836,1.2117302
1421110400067.00,-2.642455,-9.333092,1.2620256
1421110400084.00,-2.7195446,-9.330697,1.377286
1421110400104.00,-2.582729,-9.212143,1.2808864
1421110400124.00,-2.6638606,-9.289383,1.2868739
1421110400146.00,-2.6532326,-9.275162,1.0722203
1421110400167.00,-2.834805,-9.373058,1.1979588
1421110400184.00,-2.6331742,-9.414223,1.3251942
1421110400210.00,-2.6173072,-9.377849,1.3268409
1421110400224.00,-2.6752367,-9.322464,1.2763957
1421110400244.00,-2.6206005,-9.533674,1.1689192
1421110400264.00,-2.6933491,-9.358539,1.0999128
1421110400285.00,-2.6346712,-9.342522,1.1551479
1421110400305.00,-2.5532405,-9.36273,1.2246034
1421110400353.00,-2.629432,-9.361532,1.1328442
1421110400355.00,-2.681374,-9.386082,1.1753558
1421110400364.00,-2.6273365,-9.351354,1.0767109
1421110400384.00,-2.758763,-9.298813,1.2084371
1421110400404.00,-2.6152117,-9.279653,1.3443544
1421110400424.00,-2.5493486,-9.224268,1.3111235
1421110400444.00,-2.6146128,-9.220077,1.237776
1421110400464.00,-2.7138565,-9.183104,1.2266991
1421110400489.00,-2.7232869,-9.273366,1.2657678
1421110400507.00,-2.6807754,-9.358089,1.1913725
1421110400529.00,-2.6584716,-9.175919,1.1599379
1421110400547.00,-2.7143056,-9.343121,1.117576
1421110400566.00,-2.7340646,-9.431288,1.1244617
1421110400586.00,-2.6909542,-9.356893,1.217568
1421110400606.00,-2.6090744,-9.327852,1.2193643
1421110400626.00,-2.658771,-9.294621,1.2584331
1421110400697.00,-2.5921595,-9.353748,1.1216176
1421110400698.00,-2.6301806,-9.369466,1.1407777
1421110400699.00,-2.579436,-9.372909,1.2210109
1421110400705.00,-2.653532,-9.271719,1.339714
1421110400724.00,-2.6556275,-9.29043,1.3446537
1421110400745.00,-2.6447003,-9.268875,1.3066329
1421110400764.00,-2.6620643,-9.407038,1.2141252
1421110400784.00,-2.7864556,-9.42515,0.9758208
1421110400804.00,-2.7620564,-9.558224,1.0500664
1421110400838.00,-2.660717,-9.361832,1.0270143
1421110400847.00,-2.49576,-9.392069,1.1032059
1421110400864.00,-2.542912,-9.524544,1.1880794
1421110400885.00,-2.527045,-9.447304,1.111289
1421110400904.00,-2.6110203,-9.381441,1.26951
1421110400924.00,-2.548151,-9.393716,1.029559
1421110400944.00,-2.6081762,-9.31947,1.2058923
1421110400967.00,-2.7306216,-9.265732,1.1621833
1421110401033.00,-2.681374,-9.3613825,1.1746074
1421110401034.00,-2.6451495,-9.2747135,1.0464739
1421110401035.00,-2.6767337,-9.292526,1.1784993
1421110401044.00,-2.6553283,-9.358089,1.1792477
1421110401064.00,-2.5744963,-9.466314,1.1524534
1421110401084.00,-2.4803421,-9.4253,1.1424243
1421110401104.00,-2.596351,-9.372459,1.1594888
1421110401125.00,-2.6036856,-9.2625885,1.2991484
1421110401144.00,-2.6000931,-9.367371,1.3356725
1421110401164.00,-2.6220973,-9.346863,1.2603791
1421110401184.00,-2.64485,-9.321865,1.3394147
1421110401204.00,-2.6247916,-9.32411,1.3557308
1421110401224.00,-2.645299,-9.310638,1.3310322
1421110401245.00,-2.5896149,-9.1621475,1.2819343
1421110401264.00,-2.633324,-9.31992,1.2528946
1421110401285.00,-2.658771,-9.300909,1.2883708
1421110401349.00,-2.7601104,-9.494307,1.2030482
1421110401350.00,-2.7731333,-9.42994,1.2641213
1421110401351.00,-2.5932074,-9.374556,1.2756473
1421110401373.00,-2.6086254,-9.396111,1.2921131
1421110401384.00,-2.674189,-9.336834,1.2027489
1421110401407.00,-2.701133,-9.297765,1.203647
1421110401424.00,-2.7042763,-9.434581,1.2008029
1421110401444.00,-2.7119105,-9.275611,1.3536351
1421110401464.00,-2.635719,-9.330248,1.2207115
1421110401486.00,-2.583328,-9.31977,1.1991563
1421110401505.00,-2.6749375,-9.4860735,1.3236973
1421110401525.00,-2.6508377,-9.43024,1.3445041
1421110401544.00,-2.6185048,-9.370514,1.2022998
1421110401567.00,-2.7017317,-9.325607,1.4040802
1421110401593.00,-2.7942393,-9.339828,1.2913646
1421110401607.00,-2.7101142,-9.298663,1.3242961
1421110401682.00,-2.728077,-9.3823395,1.2847782
1421110401686.00,-2.735262,-9.259146,1.2350817
1421110401687.00,-2.655927,-9.3823395,1.3186079
1421110401688.00,-2.7660978,-9.332493,1.368604
1421110401704.00,-2.6949956,-9.362131,1.2177178
1421110401724.00,-2.6074278,-9.348061,1.2937596
1421110401744.00,-2.5970993,-9.381441,1.2918136
1421110401765.00,-2.597249,-9.370664,1.1626323
1421110401785.00,-2.6729915,-9.360186,1.0952724
1421110401804.00,-2.6378145,-9.510024,1.1716136
1421110401824.00,-2.6915529,-9.409882,1.198857
1421110401845.00,-2.6473947,-9.296867,1.2389735
1421110401865.00,-2.5523424,-9.355545,1.131497
1421110401884.00,-2.653981,-9.334739,1.161285
1421110401904.00,-2.7388544,-9.496102,1.2196637
1421110401926.00,-2.6903553,-9.394015,1.0761123
1421110401946.00,-2.6720934,-9.3365345,1.0645862
1421110402029.00,-2.6045837,-9.383388,1.1946657
1421110402029.00,-2.5842261,-9.278007,1.2249027
1421110402030.00,-2.5108786,-9.469608,1.1639795
1421110402031.00,-2.6162596,-9.417366,1.0165361
1421110402050.00,-2.493814,-9.467812,1.194965
1421110402066.00,-2.5550368,-9.442964,1.1936178
1421110402218.00,-2.604434,-9.344019,1.1500584
1421110402219.00,-2.7262807,-9.327404,1.1508069
1421110402219.00,-2.5884173,-9.410031,1.1982582
1421110402221.00,-2.6529331,-9.376351,1.1011102
1421110402223.00,-2.6300309,-9.422905,1.2121793
1421110402224.00,-2.5171654,-9.493857,1.0948234
1421110402225.00,-2.5869205,-9.432784,1.1059003
1421110402226.00,-2.5715024,-9.436526,1.247356
1421110402244.00,-2.6479936,-9.22786,1.1620336
1421110402272.00,-2.656825,-9.364527,1.1850857
1421110402285.00,-2.5505462,-9.2504635,1.1937675
1421110402376.00,-2.6812243,-9.321566,1.1987072
1421110402377.00,-2.605033,-9.28594,1.2105327
1421110402378.00,-2.7916946,-9.310489,1.3386662
1421110402379.00,-2.679428,-9.315279,1.2030482
1421110402384.00,-2.727029,-9.368419,1.1566447
1421110402404.00,-2.732867,-9.276659,1.0734178
1421110402427.00,-2.64964,-9.432036,1.1581416
1421110402449.00,-2.675686,-9.379346,1.0942246
1421110402466.00,-2.7325675,-9.474248,1.1506572
1421110402484.00,-2.60638,-9.42051,1.0897338
1421110402505.00,-2.5945547,-9.395961,0.9897418
1421110402527.00,-2.5893154,-9.36273,1.0786569
1421110402547.00,-2.63033,-9.372311,1.0356963
1421110402564.00,-2.6593697,-9.380992,1.2364289
1421110402587.00,-2.7584639,-9.374406,1.1909235
1421110402605.00,-2.5821304,-9.282646,0.96579164
1421110402665.00,-2.6117687,-9.471704,1.0704241
1421110402666.00,-2.7184968,-9.470356,1.0961705
1421110402667.00,-2.6197023,-9.3735075,1.056952
1421110402689.00,-2.6551785,-9.29028,1.0931767
1421110402705.00,-2.5791366,-9.389974,0.99333435
1421110402725.00,-2.6149123,-9.436676,1.1487112
1421110402745.00,-2.6009912,-9.347611,1.156046
1421110402765.00,-2.605931,-9.365574,1.0572515
1421110402793.00,-2.772385,-9.351953,1.1591895
1421110402806.00,-2.6405091,-9.4226055,1.0470726
1421110402824.00,-2.7104137,-9.239087,1.0924283
1421110402844.00,-2.6729915,-9.223519,1.1502081
1421110402870.00,-2.6026378,-9.26199,1.1323951
1421110402886.00,-2.750081,-9.419462,1.0590477
1421110402908.00,-2.5460556,-9.349708,1.1027569
1421110402987.00,-2.5888665,-9.367221,1.0855426
1421110402988.00,-2.663112,-9.454639,1.0322534
1421110402989.00,-2.5930576,-9.345816,1.0867401
1421110402990.00,-2.778073,-9.209748,1.0511142
1421110403008.00,-2.5749454,-9.374705,1.1255095
1421110403025.00,-2.5954528,-9.273216,1.1075468
1421110403045.00,-2.6427543,-9.312883,1.0367441
1421110403065.00,-2.6541307,-9.395961,1.1641291
1421110403088.00,-2.5979974,-9.422755,1.1163784
1421110403106.00,-2.625091,-9.39132,1.0761123
1421110403125.00,-2.6297314,-9.398655,1.1846366
1421110403145.00,-2.544259,-9.380393,1.135838
1421110403170.00,-2.5128245,-9.291927,1.109343
1421110403184.00,-2.6006918,-9.30046,1.1367362
1421110403205.00,-2.767894,-9.332643,1.0687774
1421110403225.00,-2.7255323,-9.41093,1.0288106
1421110403248.00,-2.7171497,-9.258996,1.0464739
1421110403320.00,-2.6788294,-9.280401,1.2859758
1421110403321.00,-2.6153612,-9.226663,1.2528946
1421110403322.00,-2.6586213,-9.241781,1.3295352
1421110403330.00,-2.637665,-9.269175,1.2552896
1421110403345.00,-2.4804919,-9.301956,1.3121713
1421110403365.00,-2.6098228,-9.284892,1.4624588
1421110403385.00,-2.579885,-9.344468,1.3876145
1421110403408.00,-2.7113118,-9.365873,1.2319381
1421110403427.00,-2.6499395,-9.432036,1.053659
1421110403449.00,-2.791994,-9.568851,1.0336006
1421110403465.00,-2.883304,-9.5809765,0.8655002
1421110403485.00,-2.862647,-9.583671,0.7005432
1421110403505.00,-2.615062,-9.534722,0.72015244
1421110403525.00,-2.4340882,-9.541608,0.95875627
1421110403547.00,-2.468367,-9.437574,1.1850857
1421110403568.00,-2.4348366,-9.397458,1.1847862
1421110403634.00,-2.5689578,-9.298364,1.1124866
1421110403636.00,-2.4770489,-9.170529,1.2204121
1421110403637.00,-2.443818,-9.238788,1.0359956
1421110403644.00,-2.559228,-9.19942,0.9713301
1421110403665.00,-2.5521927,-9.242081,1.1166779
1421110403686.00,-2.5716522,-9.30959,1.0103989
1421110403705.00,-2.568808,-9.326805,0.96399534
1421110403725.00,-2.6095235,-9.455687,1.1268567
1421110403745.00,-2.6003923,-9.335636,1.1801459
1421110403765.00,-2.6206005,-9.303304,1.0568024
1421110403788.00,-2.6339228,-9.405242,1.1427237
1421110403805.00,-2.6093738,-9.371861,1.0559043
1421110403825.00,-2.5494983,-9.419013,1.0674303
1421110403845.00,-2.511178,-9.430389,1.1133847
1421110403869.00,-2.535727,-9.422306,1.121917
1421110403885.00,-2.674189,-9.413026,1.1190729
1421110403953.00,-2.6229954,-9.309141,1.1307486
1421110403954.00,-2.6532326,-9.376351,1.1319461
1421110403955.00,-2.6271868,-9.223819,1.1696677
1421110403965.00,-2.6140141,-9.2874365,1.1500584
1421110403986.00,-2.7632537,-9.429341,1.1533515
1421110404006.00,-2.735711,-9.450897,0.94303894
1421110404025.00,-2.6605673,-9.422156,1.0807526
1421110404045.00,-2.6747878,-9.505982,1.053659
1421110404065.00,-2.5728498,-9.393117,1.0687774
1421110404085.00,-2.6782305,-9.505982,1.0828482
1421110404105.00,-2.68811,-9.260642,1.0755135
1421110404125.00,-2.5571325,-9.225316,1.0038126
1421110404145.00,-2.6637108,-9.395362,1.1279045
1421110404165.00,-2.608326,-9.460776,1.1148816
1421110404185.00,-2.5738976,-9.354048,1.0523117
1421110404205.00,-2.5724006,-9.378747,0.9648935
1421110404227.00,-2.576592,-9.340876,0.99752563
1421110404292.00,-2.6825716,-9.380543,1.0928774
1421110404293.00,-2.6894572,-9.3806925,1.1764036
1421110404294.00,-2.5710535,-9.346713,1.2028985
1421110404305.00,-2.6776319,-9.260792,1.079106
1421110404325.00,-2.6545799,-9.28579,1.0638378
1421110404346.00,-2.6867628,-9.192385,1.1241623
1421110404365.00,-2.5565336,-9.276509,1.1876303
1421110404385.00,-2.6161098,-9.317973,1.0692265
1421110404405.00,-2.6421556,-9.397308,1.069526
1421110404429.00,-2.68811,-9.438323,1.14931
1421110404447.00,-2.6839187,-9.277707,1.1305989
1421110404465.00,-2.5641677,-9.344169,1.1765534
1421110404485.00,-2.5843759,-9.362281,1.1380833
1421110404505.00,-2.5887167,-9.284293,0.99977094
1421110404525.00,-2.6830206,-9.35315,1.0253677
1421110404545.00,-2.6444008,-9.263337,1.0591974
1421110404605.00,-2.6054819,-9.334589,1.104104
1421110404606.00,-2.6006918,-9.382639,1.1205697
1421110404607.00,-2.632875,-9.380992,0.96414506
1421110404625.00,-2.629432,-9.454041,1.1294014
1421110404645.00,-2.6057813,-9.368867,1.1160791
1421110404665.00,-2.5628207,-9.368269,1.0978171
1421110404685.00,-2.5978477,-9.24238,1.0386901
1421110404705.00,-2.6027875,-9.425899,1.061293
1421110404727.00,-2.655927,-9.401649,1.0431807
1421110404745.00,-2.5590785,-9.292975,1.0307565
1421110404767.00,-2.6197023,-9.436826,1.0168355
1421110404786.00,-2.6442513,-9.523196,1.0006691
1421110404805.00,-2.7027795,-9.33399,0.9530681
1421110404825.00,-2.618355,-9.386231,1.0322534
1421110404845.00,-2.5915608,-9.422007,1.054108
1421110404865.00,-2.5560846,-9.439969,1.1683204
1421110404928.00,-2.5141718,-9.368119,1.1639795
1421110404929.00,-2.6544302,-9.316028,1.1079959
1421110404930.00,-2.6099725,-9.285192,0.98764616
1421110404950.00,-2.717,-9.380992,1.0202783
1421110404965.00,-2.6705964,-9.423504,1.0915302
1421110404987.00,-2.657424,-9.339828,1.1419753
1421110405005.00,-2.6352699,-9.359437,1.1976595
1421110405029.00,-2.6363177,-9.352252,1.0533595
1421110405046.00,-2.615062,-9.334739,1.0256671
1421110405065.00,-2.6479936,-9.25256,1.094973
1421110405093.00,-2.642904,-9.307046,1.0222243
1421110405105.00,-2.6200018,-9.208251,1.0844948
1421110405125.00,-2.5134232,-9.380393,1.1124866
1421110405145.00,-2.5767417,-9.399104,1.0732682
1421110405165.00,-2.6211991,-9.618399,1.0785072
1421110405186.00,-2.6327252,-9.433832,1.0171349
1421110405208.00,-2.7009833,-9.34851,1.1490107
1421110405261.00,-2.6828709,-9.322763,0.9985735
1421110405262.00,-2.64485,-9.370664,0.99587905
1421110405268.00,-2.570305,-9.450897,1.217119
1421110405286.00,-2.5828788,-9.374106,1.1160791
1421110405305.00,-2.7211912,-9.452693,1.101709
1421110405327.00,-2.6185048,-9.374106,1.0361453
1421110405347.00,-2.5855732,-9.298064,1.1024574
1421110405366.00,-2.5947044,-9.433233,0.9874965
1421110405389.00,-2.6949956,-9.488917,1.1925701
1421110405410.00,-2.7527757,-9.450448,1.0106982
1421110405425.00,-2.6608667,-9.360335,1.0419831
1421110405445.00,-2.5878186,-9.368717,1.1066487
1421110405465.00,-2.6297314,-9.377399,1.0948234
1421110405485.00,-2.552043,-9.304202,1.155597
1421110405507.00,-2.5571325,-9.470356,1.0837463
1421110405592.00,-2.5680597,-9.376202,1.0798545
1421110405592.00,-2.6268873,-9.504934,0.97462326
1421110405593.00,-2.6134155,-9.42081,0.9732761
1421110405594.00,-2.627037,-9.479937,1.0032138
1421110405612.00,-2.5471032,-9.363329,1.0912308
1421110405626.00,-2.4733067,-9.398954,1.0668315
1421110405646.00,-2.4445665,-9.366472,1.1246114
1421110405666.00,-2.5599766,-9.372311,1.2243041
1421110405686.00,-2.5845253,-9.308244,1.1946657
1421110405705.00,-2.5153692,-9.193582,1.0300081
1421110405726.00,-2.4625292,-9.235644,1.0910811
1421110405746.00,-2.5565336,-9.41557,1.129102
1421110405765.00,-2.5427623,-9.418414,1.1728112
1421110405785.00,-2.5349784,-9.318273,1.1030562
1421110405806.00,-2.64485,-9.367371,1.1234138
1421110405825.00,-2.6370661,-9.385932,1.129551
1421110405847.00,-2.5375233,-9.304651,1.0837463
1421110405920.00,-2.5565336,-9.371113,0.9925859
1421110405921.00,-2.7084677,-9.34821,1.1169772
1421110405921.00,-2.6219475,-9.4242525,1.1205697
1421110405925.00,-2.5599766,-9.348061,1.0657837
1421110405946.00,-2.701133,-9.309291,1.0907817
1421110405965.00,-2.4737558,-9.3806925,1.047821
1421110405985.00,-2.6744883,-9.382639,1.0300081
1421110406006.00,-2.617457,-9.349708,1.1106904
1421110406025.00,-2.5018973,-9.259146,1.1332933
1421110406045.00,-2.5551865,-9.262888,1.2374767
1421110406066.00,-2.6276357,-9.402397,1.1840378
1421110406085.00,-2.6117687,-9.325607,1.1440709
1421110406105.00,-2.6638606,-9.356743,1.1567944
1421110406125.00,-2.6577232,-9.399853,1.0903326
1421110406145.00,-2.6978397,-9.441466,0.9994716
1421110406167.00,-2.645299,-9.45449,0.9595047
1421110406255.00,-2.6021888,-9.363479,0.9755214
1421110406256.00,-2.6191034,-9.377849,0.9424402
1421110406257.00,-2.4740553,-9.514515,0.9912387
1421110406261.00,-2.5038433,-9.503587,1.093476
1421110406266.00,-2.4782465,-9.473201,1.1704161
1421110406291.00,-2.5927584,-9.405541,1.1440709
1421110406308.00,-2.5782385,-9.2521105,1.2725039
1421110406325.00,-2.583328,-9.191187,1.1442206
1421110406346.00,-2.6331742,-9.267677,1.0785072
1421110406365.00,-2.7008336,-9.375903,1.0898836
1421110406385.00,-2.6285338,-9.359886,1.0177336
1421110406406.00,-2.5601263,-9.479787,1.0494676
1421110406426.00,-2.6089246,-9.467362,1.0118958
1421110406446.00,-2.6310787,-9.454938,1.0033635
1421110406468.00,-2.5403674,-9.379496,0.9595047
1421110406487.00,-2.494413,-9.447005,1.129551
1421110406550.00,-2.5192611,-9.426198,1.0192305
1421110406551.00,-2.6104217,-9.381591,1.1061996
1421110406552.00,-2.602039,-9.465866,1.0922786
1421110406573.00,-2.5099804,-9.398655,1.1433225
1421110406586.00,-2.591411,-9.359886,1.0677296
1421110406606.00,-2.623744,-9.507628,1.1488609
1421110406627.00,-2.464026,-9.490864,1.0083032
1421110406645.00,-2.4653733,-9.30016,1.0641371
1421110406666.00,-2.6200018,-9.306597,1.2385244
1421110406685.00,-2.6330247,-9.346414,1.2437636
1421110406705.00,-2.5004003,-9.327553,1.0304571
1421110406726.00,-2.5363257,-9.275013,0.97626984
1421110406746.00,-2.5057893,-9.435479,1.0313553
1421110406766.00,-2.6000931,-9.364377,1.1073972
1421110406788.00,-2.6358688,-9.344019,1.2184662
1421110406807.00,-2.6658065,-9.284593,1.1849359
1421110406825.00,-2.5840764,-9.46347,1.1005114
1421110406846.00,-2.559228,-9.318722,1.1011102
1421110406919.00,-2.552043,-9.41557,1.1976595
1421110406920.00,-2.530937,-9.475446,1.0577005
1421110406921.00,-2.568808,-9.423504,1.0457253
1421110406925.00,-2.493365,-9.368717,1.0937755
1421110406945.00,-2.5851243,-9.459878,1.1053015
1421110406967.00,-2.6078768,-9.441466,0.9755214
1421110406987.00,-2.5622218,-9.599388,1.0238708
1421110407005.00,-2.5662634,-9.347911,0.95067304
1421110407025.00,-2.5541387,-9.413176,1.1056008
1421110407046.00,-2.34188,-9.390423,1.1488609
1421110407066.00,-2.4782465,-9.418564,1.1178753
1421110407098.00,-2.5399182,-9.457633,0.9750723
1421110407107.00,-2.648143,-9.352252,1.0678793
1421110407125.00,-2.6695487,-9.498648,1.0051597
1421110407146.00,-2.564018,-9.483829,1.0895842
1421110407216.00,-2.544858,-9.427546,1.1470647
1421110407217.00,-2.4942632,-9.436377,1.1588901
1421110407218.00,-2.5408163,-9.438922,1.0861413
1421110407226.00,-2.4664211,-9.298813,1.1124866
1421110407246.00,-2.5450077,-9.429042,1.1657758
1421110407265.00,-2.5285418,-9.225166,1.1707155
1421110407285.00,-2.6370661,-9.323811,1.1121871
1421110407306.00,-2.593357,-9.357491,1.1741583
1421110407333.00,-2.4836352,-9.310339,1.1181748
1421110407346.00,-2.7244844,-9.425899,1.0282118
1421110407365.00,-2.5521927,-9.297167,1.0746154
1421110407386.00,-2.6229954,-9.402397,1.1198213
1421110407406.00,-2.625091,-9.436377,1.0829979
1421110407427.00,-2.636767,-9.315129,1.1169772
1421110407449.00,-2.5990453,-9.317973,1.1289524
1421110407480.00,-2.5120761,-9.293873,1.1689192
1421110407488.00,-2.6360183,-9.345516,1.1843371
1421110407570.00,-2.617906,-9.369316,1.0865904
1421110407571.00,-2.5346792,-9.333691,1.1837384
1421110407572.00,-2.6146128,-9.420361,0.9993219
1421110407573.00,-2.583777,-9.37725,1.0000703
1421110407591.00,-2.5562344,-9.455387,1.0773097
1421110407606.00,-2.689158,-9.392069,1.0328522
1421110407625.00,-2.722838,-9.455237,1.0114467
1421110407646.00,-2.555935,-9.351953,1.0663824
1421110407668.00,-2.554438,-9.345217,1.1552975
1421110407686.00,-2.5926087,-9.430689,1.0961705
1421110407709.00,-2.511178,-9.404044,1.1551479
1421110407727.00,-2.575544,-9.543704,1.0913805
1421110407746.00,-2.50055,-9.421707,1.0364447
1421110407767.00,-2.5695565,-9.353748,1.0767109
1421110407787.00,-2.5731492,-9.380842,1.1008109
1421110407857.00,-2.6441016,-9.355994,1.10605
1421110407859.00,-2.6243427,-9.307196,1.025218
1421110407860.00,-2.4474106,-9.433982,1.1056008
1421110407865.00,-2.5372238,-9.471105,1.0913805
1421110407885.00,-2.5677602,-9.430539,1.0505154
1421110407906.00,-2.5762925,-9.466314,1.1317964
1421110407926.00,-2.4565415,-9.435779,1.1033555
1421110407946.00,-2.690056,-9.330697,1.1472144
1421110407966.00,-2.7273285,-9.422755,1.1370355
1421110407988.00,-2.6418562,-9.284593,1.1072475
1421110408010.00,-2.6647587,-9.441766,1.129551
1421110408027.00,-2.5788374,-9.2046585,1.0961705
1421110408047.00,-2.4089406,-9.262888,1.0755135
1421110408066.00,-2.6126668,-9.349258,0.9916878
1421110408086.00,-2.575544,-9.491463,1.1106904
1421110408111.00,-2.57749,-9.426048,1.0746154
1421110408128.00,-2.580484,-9.507928,1.0786569
1421110408201.00,-2.458188,-9.379944,1.0003697
1421110408202.00,-2.581831,-9.379795,1.1051518
1421110408204.00,-2.6638606,-9.358239,1.1768527
1421110408205.00,-2.6096733,-9.330547,1.1508069
1421110408226.00,-2.562072,-9.288335,1.1273057
1421110408246.00,-2.5480013,-9.409882,1.142574
1421110408266.00,-2.498604,-9.434431,1.0133927
1421110408286.00,-2.5435107,-9.600137,1.0792557
1421110408306.00,-2.6253905,-9.56451,1.1404784
1421110408326.00,-2.6890082,-9.422755,1.0835967
1421110408346.00,-2.6054819,-9.504635,1.1127859
1421110408366.00,-2.4816892,-9.356294,1.1883788
1421110408386.00,-2.6120682,-9.421408,1.2165202
1421110408406.00,-2.5411158,-9.308693,1.1886781
1421110408426.00,-2.5465045,-9.334439,1.0446776
1421110408446.00,-2.705025,-9.288335,1.0665321
1421110408475.00,-2.5764422,-9.533974,1.1328442
1421110408536.00,-2.6921515,-9.499994,1.2003539
1421110408538.00,-2.7675948,-9.328601,1.1304492
1421110408538.00,-2.6770332,-9.288185,1.1198213
1421110408546.00,-2.562072,-9.4015,1.0963202
1421110408566.00,-2.55354,-9.495804,1.0368937
1421110408586.00,-2.4878266,-9.497001,1.0208771
1421110408606.00,-2.5574317,-9.381142,1.0003697
1421110408627.00,-2.6279352,-9.3872795,1.0142908
1421110408646.00,-2.600542,-9.413176,1.0901829
1421110408666.00,-2.6714945,-9.455387,0.9912387
1421110408686.00,-2.6158104,-9.337583,1.1184741
1421110408706.00,-2.6584716,-9.44416,1.0023156
1421110408730.00,-2.5512946,-9.387578,1.1433225
1421110408746.00,-2.568808,-9.404493,1.0565029
1421110408766.00,-2.522255,-9.4104805,1.0623409
1421110408787.00,-2.590064,-9.418264,1.1302996
1421110408857.00,-2.6541307,-9.484278,1.1240126
1421110408858.00,-2.6343718,-9.279054,1.0867401
1421110408859.00,-2.580484,-9.392368,0.99498093
1421110408866.00,-2.4426205,-9.376651,1.0075548
1421110408886.00,-2.5596771,-9.3309965,1.10126
1421110408906.00,-2.4447162,-9.340726,1.165626
1421110408926.00,-2.6089246,-9.455237,1.0835967
1421110408946.00,-2.5786877,-9.3735075,1.0665321
1421110408966.00,-2.6530828,-9.389075,1.1520044
1421110408987.00,-2.5324337,-9.349708,1.1713142
1421110409006.00,-2.4867787,-9.368568,1.0316547
1421110409026.00,-2.6475444,-9.283994,1.1252102
1421110409046.00,-2.5884173,-9.502989,1.0855426
1421110409069.00,-2.6027875,-9.463021,1.0910811
1421110409086.00,-2.6125174,-9.315578,0.9868977
1421110409106.00,-2.680925,-9.351803,1.1220666
1421110409166.00,-2.6929002,-9.418714,1.0716215
1421110409167.00,-2.737657,-9.41078,1.117127
1421110409168.00,-2.6634114,-9.406888,1.0840458
1421110409187.00,-2.699636,-9.2625885,1.1241623
1421110409207.00,-2.6662555,-9.270522,1.0174342
1421110409226.00,-2.6563761,-9.378597,0.97312635
1421110409247.00,-2.6628127,-9.328451,1.04348
1421110409266.00,-2.6340723,-9.373058,1.0370435
1421110409288.00,-2.707869,-9.311986,1.0820998
1421110409309.00,-2.5596771,-9.3437195,0.9726773
1421110409338.00,-2.581831,-9.357342,1.0439291
1421110409346.00,-2.6490412,-9.311986,1.0258168
1421110409366.00,-2.5783882,-9.352851,1.0283616
1421110409386.00,-2.7416985,-9.364975,1.0346484
1421110409407.00,-2.743495,-9.453891,1.1313473
1421110409426.00,-2.6225464,-9.4193125,1.0394385
1421110409499.00,-2.6592202,-9.471704,1.0776091
1421110409500.00,-2.511627,-9.466015,0.9996213
1421110409501.00,-2.5158184,-9.394614,1.0325528
1421110409507.00,-2.5444088,-9.2730665,1.0639874
1421110409526.00,-2.4535477,-9.297615,1.0442286
1421110409547.00,-2.4553442,-9.399703,0.9807605
1421110409566.00,-2.563569,-9.386231,1.0264156
1421110409586.00,-2.634222,-9.486523,1.0452763
1421110409606.00,-2.7089167,-9.384584,1.0955718
1421110409626.00,-2.5358765,-9.34851,1.0066566
1421110409646.00,-2.5671616,-9.259445,1.0002201
1421110409667.00,-2.630929,-9.361084,1.1035053
1421110409686.00,-2.653981,-9.325158,1.061293
1421110409707.00,-2.7117608,-9.3050995,0.8782237
1421110409729.00,-2.6638606,-9.351204,1.0030642
1421110409748.00,-2.4297473,-9.3613825,1.0789562
1421110409813.00,-2.5475523,-9.462572,1.1154803
1421110409813.00,-2.628085,-9.320068,1.033451
1421110409814.00,-2.5059388,-9.399104,1.1561956
1421110409826.00,-2.4834855,-9.346264,1.0972183
1421110409847.00,-2.55354,-9.3277025,1.1243119
1421110409866.00,-2.6113198,-9.256302,1.0933264
1421110409886.00,-2.5514443,-9.304951,1.0698253
1421110409906.00,-2.7048752,-9.447753,1.1117381
1421110409926.00,-2.5975485,-9.418264,1.1623329
1421110409959.00,-2.6304798,-9.187894,1.069526
1421110409966.00,-2.6382637,-9.265133,1.1639795
1421110409986.00,-2.5911117,-9.370065,1.2096345
1421110410008.00,-2.6517358,-9.398506,1.153651
1421110410027.00,-2.586172,-9.285341,1.0886861
1421110410050.00,-2.5512946,-9.379346,1.143023
1421110410069.00,-2.5982969,-9.421557,1.1120375
1421110410090.00,-2.6026378,-9.334589,1.0708731
1421110410183.00,-2.509232,-9.394614,1.011746
1421110410185.00,-2.6286836,-9.363329,1.1276051
1421110410186.00,-2.6753864,-9.436826,1.0812017
1421110410187.00,-2.5237517,-9.388626,1.167123
1421110410188.00,-2.624193,-9.390273,1.1157798
1421110410207.00,-2.6080265,-9.389225,1.0409354
1421110410227.00,-2.5331821,-9.356593,0.9725276
1421110410247.00,-2.6292825,-9.259295,0.9988728
1421110410266.00,-2.5780888,-9.36288,1.0213262
1421110410287.00,-2.517016,-9.350755,1.0767109
1421110410306.00,-2.5336313,-9.348959,1.1967614
1421110410326.00,-2.6201513,-9.326655,1.0922786
1421110410348.00,-2.7146049,-9.360785,1.1511062
1421110410366.00,-2.7047255,-9.439221,0.98959213
1421110410386.00,-2.6692493,-9.399703,0.99243623
1421110410448.00,-2.523153,-9.48817,0.97492266
1421110410449.00,-2.5427623,-9.356443,1.0114467
1421110410450.00,-2.4902215,-9.4419155,1.0820998
1421110410471.00,-2.5018973,-9.356743,1.0979668
1421110410486.00,-2.476001,-9.314081,1.0617421
1421110410507.00,-2.547253,-9.312883,1.0958711
1421110410529.00,-2.6089246,-9.458082,1.097368
1421110410546.00,-2.569856,-9.356593,1.0987152
1421110410566.00,-2.5454566,-9.345666,1.0307565
1421110410586.00,-2.5363257,-9.496402,0.99243623
1421110410607.00,-2.4923172,-9.417815,1.0488689
1421110410627.00,-2.483336,-9.467961,1.165626
1421110410647.00,-2.5369244,-9.463321,0.98390394
1421110410667.00,-2.3929238,-9.534123,1.040636
1421110410687.00,-2.5375233,-9.391769,1.1024574
1421110410710.00,-2.5343797,-9.322614,1.0603949
1421110410794.00,-2.5008495,-9.395512,1.0972183
1421110410795.00,-2.5280929,-9.452843,1.0701246
1421110410796.00,-2.6530828,-9.35345,1.1066487
1421110410797.00,-2.4752526,-9.395811,1.0237212
1421110410806.00,-2.5192611,-9.326655,1.0862911
1421110410826.00,-2.5782385,-9.475745,0.9782158
1421110410847.00,-2.5658143,-9.428444,1.0633887
1421110410867.00,-2.4605832,-9.341924,1.0910811
1421110410886.00,-2.5432115,-9.373957,1.0135423
1421110410908.00,-2.586621,-9.397758,1.1779006
1421110410936.00,-2.6206005,-9.48787,1.0832973
1421110410951.00,-2.588567,-9.456884,1.031505
1421110410967.00,-2.7138565,-9.453741,1.1311977
1421110410987.00,-2.545307,-9.399703,1.0843451
1421110411006.00,-2.6137147,-9.359437,1.0339
1421110411029.00,-2.7032287,-9.474098,1.0737172
1421110411048.00,-2.5054898,-9.353748,1.0788066
1421110411119.00,-2.5018973,-9.359437,1.0050101
1421110411120.00,-2.4956102,-9.346563,1.1207194
1421110411121.00,-2.528392,-9.311237,1.1274555
1421110411126.00,-2.6503885,-9.333241,1.0759625
1421110411146.00,-2.501149,-9.400302,1.1018586
1421110411172.00,-2.5340803,-9.346414,1.1669732
1421110411187.00,-2.605033,-9.383088,1.187331
1421110411207.00,-2.5629702,-9.377399,1.13973
1421110411226.00,-2.5369244,-9.312734,1.1876303
1421110411252.00,-2.6143136,-9.344169,1.0249187
1421110411272.00,-2.565964,-9.474547,1.0310559
1421110411287.00,-2.5029452,-9.360335,1.176703
1421110411307.00,-2.603536,-9.362281,0.99647784
1421110411327.00,-2.7062223,-9.324859,1.0776091
1421110411348.00,-2.6499395,-9.411529,1.0779085
1421110411369.00,-2.6421556,-9.287137,1.0339
1421110411389.00,-2.5897646,-9.422306,1.0852432
1421110411408.00,-2.672692,-9.428742,1.0693762
1421110411430.00,-2.6286836,-9.327404,1.1617341
1421110411498.00,-2.6086254,-9.523196,1.0820998
1421110411499.00,-2.542912,-9.535471,1.0273137
1421110411500.00,-2.657873,-9.392518,1.1779006
1421110411508.00,-2.69769,-9.37725,1.1415262
1421110411527.00,-2.5851243,-9.424552,1.0864407
1421110411547.00,-2.6297314,-9.355994,1.1320958
1421110411567.00,-2.6276357,-9.345666,1.0740166
1421110411586.00,-2.504442,-9.460477,1.0876383
1421110411607.00,-2.639012,-9.376351,1.0684781
1421110411627.00,-2.5551865,-9.277258,1.0991642
1421110411646.00,-2.6807754,-9.272468,1.131497
1421110411667.00,-2.6417065,-9.293574,1.1115885
1421110411688.00,-2.552941,-9.3453665,1.1294014
1421110411707.00,-2.5152197,-9.364676,1.1054512
1421110411783.00,-2.5920098,-9.49236,1.0425819
1421110411784.00,-2.5982969,-9.338929,1.009351
1421110411785.00,-2.553989,-9.301657,1.0898836
1421110411788.00,-2.5644672,-9.417815,1.0602452
1421110411807.00,-2.4951613,-9.359736,1.1394305
1421110411827.00,-2.524201,-9.375304,1.1169772
1421110411846.00,-2.614463,-9.369616,1.0841954
1421110411867.00,-2.6162596,-9.343121,1.1674223
1421110411892.00,-2.585723,-9.322314,1.1069481
1421110411906.00,-2.5727,-9.357042,1.1710149
1421110411928.00,-2.5622218,-9.373807,1.1268567
1421110411947.00,-2.5920098,-9.390872,1.069526
1421110411967.00,-2.5171654,-9.455537,1.1091934
1421110411988.00,-2.4999514,-9.4121275,1.0731184
1421110412007.00,-2.6188042,-9.441616,1.0850935
1421110412027.00,-2.591411,-9.330248,1.1208692
1421110412118.00,-2.6093738,-9.328002,1.0401869
1421110412119.00,-2.5089326,-9.3771,1.0520123
1421110412119.00,-2.5324337,-9.371113,1.0306069
1421110412120.00,-2.4956102,-9.438173,1.165177
1421110412127.00,-2.7074199,-9.499845,1.1067984
1421110412149.00,-2.7425966,-9.389375,1.1801459
1421110412166.00,-2.590064,-9.224118,1.2510983
1421110412187.00,-2.5756938,-9.318123,1.1244617
1421110412210.00,-2.5583298,-9.326206,1.0765613
1421110412232.00,-2.6658065,-9.326955,1.1288027
1421110412247.00,-2.6475444,-9.402846,1.1442206
1421110412267.00,-2.597698,-9.39626,1.1021581
1421110412287.00,-2.6776319,-9.3437195,0.97567105
1421110412309.00,-2.7298732,-9.415121,1.0114467
1421110412332.00,-2.5459058,-9.321116,1.0274634
1421110412348.00,-2.6104217,-9.31453,1.0901829
1421110412370.00,-2.5935068,-9.416319,1.1127859
1421110412431.00,-2.6590705,-9.465567,1.0876383
1421110412433.00,-2.6405091,-9.457633,1.0892848
1421110412434.00,-2.7140062,-9.414223,1.0511142
1421110412454.00,-2.5869205,-9.361832,1.115181
1421110412467.00,-2.5800347,-9.310189,1.1238629
1421110412487.00,-2.491868,-9.368717,1.0617421
1421110412509.00,-2.5463548,-9.313632,1.1265574
1421110412527.00,-2.5161178,-9.245075,1.1981086
1421110412547.00,-2.705025,-9.479787,1.083447
1421110412567.00,-2.6527834,-9.403894,0.9698332
1421110412586.00,-2.6438022,-9.425599,1.0663824
1421110412608.00,-2.7686427,-9.31483,1.0201286
1421110412629.00,-2.6225464,-9.330398,0.9827064
1421110412649.00,-2.6533823,-9.38189,0.9463321
1421110412668.00,-2.588567,-9.419612,1.0172845
1421110412687.00,-2.547702,-9.331594,0.9858499
1421110412708.00,-2.4989035,-9.325458,0.972827
1421110412776.00,-2.5141718,-9.451944,1.1292517
1421110412777.00,-2.520309,-9.24732,1.0452763
1421110412778.00,-2.6455984,-9.31977,1.0590477
1421110412787.00,-2.5300388,-9.310638,0.9916878
1421110412808.00,-2.5586293,-9.366772,0.9883946
1421110412827.00,-2.5965006,-9.417965,1.0035132
1421110412847.00,-2.628085,-9.338779,1.0683284
1421110412867.00,-2.6755362,-9.505833,0.9330098
1421110412887.00,-2.491419,-9.373807,0.9327104
1421110412907.00,-2.64485,-9.240435,1.1352392
1421110412929.00,-2.6914032,-9.402248,1.2525952
1421110412947.00,-2.7473867,-9.290131,1.1015593
1421110412973.00,-2.70248,-9.29028,1.1298505
1421110412987.00,-2.7274783,-9.439671,1.0807526
1421110413009.00,-2.6509871,-9.228759,0.9888437
1421110413075.00,-2.7110124,-9.251811,1.0600955
1421110413076.00,-2.6282346,-9.138496,1.1593392
1421110413077.00,-2.5676107,-9.491014,1.0955718
1421110413087.00,-2.5652156,-9.528885,1.0801538
1421110413107.00,-2.6449997,-9.458232,0.92043597
1421110413128.00,-2.635719,-9.44925,0.8201445
1421110413147.00,-2.5830286,-9.431288,0.93510544
1421110413167.00,-2.6369164,-9.41093,0.9241782
1421110413187.00,-2.650688,-9.385932,1.009351
1421110413207.00,-2.5195606,-9.251212,1.1126362
1421110413228.00,-2.5967999,-9.385483,1.0401869
1421110413248.00,-2.611619,-9.351803,1.169518
1421110413267.00,-2.7105634,-9.274863,1.1252102
1421110413288.00,-2.654879,-9.38683,1.1006612
1421110413309.00,-2.590064,-9.317374,1.1488609
1421110413333.00,-2.5343797,-9.282048,1.0379416
1421110413398.00,-2.5445585,-9.308842,1.108894
1421110413399.00,-2.6090744,-9.415271,0.9900412
1421110413400.00,-2.5315356,-9.44955,0.9193881
1421110413410.00,-2.6602678,-9.405991,1.0948234
1421110413427.00,-2.5239015,-9.31453,0.9991722
1421110413448.00,-2.440974,-9.449849,0.864602
1421110413467.00,-2.4903712,-9.439221,1.0123448
1421110413487.00,-2.6586213,-9.409583,1.0470726
1421110413509.00,-2.5926087,-9.450448,0.8376581
1421110413532.00,-2.5750952,-9.347312,1.0349479
1421110413547.00,-2.5550368,-9.41093,1.0285112
1421110413567.00,-2.4272027,-9.342971,0.9764195
1421110413587.00,-2.5114775,-9.406888,1.0214758
1421110413607.00,-2.5219555,-9.438922,1.0642868
1421110413627.00,-2.533781,-9.38189,1.0873389
1421110413647.00,-2.5012984,-9.360785,1.0638378
1421110413699.00,-2.6077273,-9.423055,1.0818003
1421110413700.00,-2.5777895,-9.388476,1.1100916
1421110413712.00,-2.4968078,-9.377849,1.0422826
1421110413730.00,-2.5614734,-9.345516,0.93286014
1421110413750.00,-2.5806336,-9.374106,1.0755135
1421110413769.00,-2.544858,-9.356743,1.0991642
1421110413787.00,-2.5870702,-9.474847,1.0566527
1421110413809.00,-2.629432,-9.331744,1.0223739
1421110413828.00,-2.5661137,-9.330847,1.1283536
1421110413847.00,-2.593357,-9.390423,1.1226654
1421110413878.00,-2.6879604,-9.360036,0.99977094
1421110413887.00,-2.5167165,-9.403595,1.0672805
1421110413907.00,-2.7322683,-9.411678,1.0060579
1421110413927.00,-2.5930576,-9.412876,1.1208692
1421110413947.00,-2.586172,-9.393267,1.0776091
1421110413967.00,-2.5875192,-9.294172,1.1261083
1421110413988.00,-2.5608747,-9.387728,1.0487192
1421110414040.00,-2.6403594,-9.392518,1.0897338
1421110414041.00,-2.4855812,-9.294172,0.96264815
1421110414051.00,-2.4682174,-9.384285,0.9900412
1421110414068.00,-2.5360262,-9.425449,1.0641371
1421110414087.00,-2.6003923,-9.425899,1.0862911
1421110414107.00,-2.6527834,-9.417217,1.0015672
1421110414127.00,-2.5632696,-9.499845,0.99468154
1421110414147.00,-2.5343797,-9.462572,1.0452763
1421110414174.00,-2.5562344,-9.493109,1.0728191
1421110414200.00,-2.568808,-9.319021,1.031505
1421110414208.00,-2.6267376,-9.373807,0.99198717
1421110414228.00,-2.5584795,-9.467362,0.95980406
1421110414248.00,-2.4252567,-9.491762,1.0148895
1421110414267.00,-2.4725583,-9.481732,0.9488768
1421110414287.00,-2.5360262,-9.408086,0.9707314
1421110414307.00,-2.4749534,-9.204359,0.9466315
1421110414391.00,-2.5676107,-9.28579,1.0503658
1421110414392.00,-2.5490491,-9.347611,1.1165282
1421110414393.00,-2.5197103,-9.440718,1.0942246
1421110414394.00,-2.4737558,-9.285042,1.0063573
1421110414407.00,-2.6415567,-9.430988,1.0416838
1421110414427.00,-2.4942632,-9.417217,1.0978171
1421110414448.00,-2.5379722,-9.562565,1.2440629
1421110414467.00,-2.7068212,-9.443562,1.0963202
1421110414492.00,-2.6369164,-9.392069,1.0368937
1421110414511.00,-2.6137147,-9.434581,1.0356963
1421110414529.00,-2.5950036,-9.430539,1.1014096
1421110414548.00,-2.670746,-9.353748,1.1213182
1421110414567.00,-2.588118,-9.310189,1.0865904
1421110414588.00,-2.6661057,-9.383537,1.143023
1421110414610.00,-2.6253905,-9.380094,1.1400293
1421110414632.00,-2.6625133,-9.351354,1.1316468
1421110414648.00,-2.6084757,-9.376351,1.0333012
1421110414712.00,-2.5518932,-9.386231,1.0909314
1421110414713.00,-2.5828788,-9.397458,1.0918295
1421110414714.00,-2.5875192,-9.347312,1.0792557
1421110414733.00,-2.5230033,-9.349708,1.0365944
1421110414747.00,-2.6087751,-9.482331,0.98165864
1421110414769.00,-2.6921515,-9.542207,1.0491682
1421110414798.00,-2.5502467,-9.374855,1.0789562
1421110414807.00,-2.6138644,-9.288035,1.1166779
1421110414827.00,-2.6219475,-9.299262,1.135389
1421110414847.00,-2.6310787,-9.328751,1.1689192
1421110414869.00,-2.6306295,-9.303453,1.1931688
1421110414887.00,-2.5484505,-9.414372,1.0936258
1421110414908.00,-2.5474026,-9.4494,0.9831555
1421110414930.00,-2.5947044,-9.317374,1.0237212
1421110414949.00,-2.679428,-9.397758,1.0208771
1421110414969.00,-2.7735822,-9.579479,1.0044113
1421110414990.00,-2.5676107,-9.470506,1.036295
1421110415069.00,-2.6038353,-9.431887,1.040636
1421110415070.00,-2.5550368,-9.338631,1.0312057
1421110415070.00,-2.549648,-9.366772,1.0470726
1421110415072.00,-2.665058,-9.450298,1.0446776
1421110415090.00,-2.633773,-9.26678,1.0092014
1421110415108.00,-2.4466622,-9.478439,1.0184821
1421110415128.00,-2.5578809,-9.398356,1.0755135
1421110415149.00,-2.6002429,-9.269324,1.0975177
1421110415173.00,-2.6009912,-9.401051,1.0095007
1421110415187.00,-2.6265879,-9.347462,1.0951227
1421110415207.00,-2.6628127,-9.430389,0.9985735
1421110415227.00,-2.569856,-9.465267,1.1385324
1421110415247.00,-2.5456064,-9.3470125,1.185385
1421110415273.00,-2.475552,-9.34851,1.0476713
1421110415290.00,-2.6307793,-9.396709,1.081501
1421110415307.00,-2.6286836,-9.421108,1.0599458
1421110415372.00,-2.5638685,-9.369017,0.9903406
1421110415373.00,-2.7032287,-9.25256,1.0653347
1421110415374.00,-2.6207502,-9.46392,1.1615845
1421110415409.00,-2.5617728,-9.374256,1.0958711
1421110415410.00,-2.6258395,-9.434132,1.0524614
1421110415429.00,-2.6372159,-9.366772,1.0545571
1421110415447.00,-2.5165668,-9.396859,1.0422826
1421110415469.00,-2.6259892,-9.43024,0.9633966
1421110415495.00,-2.6586213,-9.365724,0.99183744
1421110415508.00,-2.654879,-9.328002,1.0208771
1421110415527.00,-2.667902,-9.467812,0.86160827
1421110415548.00,-2.5480013,-9.311237,1.0121951
1421110415568.00,-2.578987,-9.337882,1.0773097
1421110415588.00,-2.6695487,-9.314081,0.98195803
1421110415608.00,-2.5864713,-9.253008,1.0268646
1421110415664.00,-2.611619,-9.426348,0.950224
1421110415665.00,-2.704426,-9.330697,0.979563
1421110415668.00,-2.6321266,-9.377699,1.1259586
1421110415688.00,-2.5132737,-9.44446,1.0063573
1421110415707.00,-2.5572822,-9.485025,1.0674303
1421110415728.00,-2.6213489,-9.408834,1.0909314
1421110415747.00,-2.6186545,-9.443413,1.0169852
1421110415769.00,-2.5330324,-9.303903,1.0211765
1421110415791.00,-2.6442513,-9.279353,0.9976753
1421110415814.00,-2.5921595,-9.315728,1.0316547
1421110415833.00,-2.691104,-9.407038,1.0208771
1421110415848.00,-2.6550288,-9.316028,1.036295
1421110415869.00,-2.5854235,-9.372011,1.0141411
1421110415888.00,-2.4460633,-9.2995615,1.0437795
1421110415918.00,-2.5909622,-9.406289,1.1265574
1421110415929.00,-2.5715024,-9.518406,1.0216255
1421110415948.00,-2.5396187,-9.29043,0.9168434
1421110416017.00,-2.5637188,-9.336085,1.0734178
1421110416018.00,-2.6188042,-9.482032,1.0153385
1421110416019.00,-2.6509871,-9.510773,1.0395882
1421110416028.00,-2.6346712,-9.418115,0.9871971
1421110416048.00,-2.5758436,-9.431138,0.9457333
1421110416067.00,-2.6776319,-9.315429,1.0333012
1421110416087.00,-2.718347,-9.443711,0.98480207
1421110416108.00,-2.7014322,-9.385483,0.9922865
1421110416128.00,-2.6921515,-9.383238,0.93794954
1421110416149.00,-2.5047414,-9.492062,1.0190808
1421110416167.00,-2.5209076,-9.328002,0.94932586
1421110416188.00,-2.5768914,-9.364377,1.0460248
1421110416209.00,-2.6300309,-9.361832,1.0350975
1421110416228.00,-2.5786877,-9.414822,1.0086026
1421110416248.00,-2.5920098,-9.523645,1.0494676
1421110416315.00,-2.7538233,-9.455687,0.9267229
1421110416316.00,-2.622247,-9.339977,1.1437715
1421110416317.00,-2.6714945,-9.413923,0.94139236
1421110416328.00,-2.5725503,-9.394913,1.0083032
1421110416348.00,-2.556833,-9.341025,1.0189312
1421110416369.00,-2.6547294,-9.424402,0.9539662
1421110416387.00,-2.6330247,-9.469159,1.0102491
1421110416412.00,-2.5906627,-9.387578,0.94558364
1421110416427.00,-2.701582,-9.41093,0.92462724
1421110416448.00,-2.7042763,-9.403894,0.9621991
1421110416468.00,-2.5834777,-9.504036,1.0529104
1421110416488.00,-2.6140141,-9.378747,1.0927277
1421110416508.00,-2.6149123,-9.426198,1.0704241
1421110416528.00,-2.5466542,-9.303903,0.9592053
1421110416548.00,-2.5339308,-9.364227,0.9389973
1421110416568.00,-2.5177643,-9.519903,0.91923845
1421110416588.00,-2.5276437,-9.375304,0.911754
1421110416671.00,-2.7081683,-9.44925,1.0246193
1421110416672.00,-2.552043,-9.541308,0.9789642
1421110416673.00,-2.5819807,-9.457334,0.9618997
1421110416674.00,-2.6093738,-9.307645,1.0716215
1421110416692.00,-2.6536818,-9.412577,1.0726694
1421110416708.00,-2.4517515,-9.390573,0.92821974
1421110416728.00,-2.499203,-9.515412,1.0309062
1421110416748.00,-2.5119264,-9.457034,0.97207856
1421110416768.00,-2.5132737,-9.434431,1.0542576
1421110416789.00,-2.5788374,-9.368269,0.9663904
1421110416808.00,-2.5664132,-9.3541975,0.9395961
1421110416828.00,-2.4786956,-9.500144,0.93510544
1421110416848.00,-2.5451574,-9.35764,0.93794954
1421110416868.00,-2.5752447,-9.405392,0.9599538
1421110416888.00,-2.6126668,-9.429491,0.97312635
1421110416908.00,-2.552941,-9.380992,0.93226135
1421110416968.00,-2.6854157,-9.406439,1.0020163
1421110416968.00,-2.603536,-9.447304,0.9912387
1421110416969.00,-2.5926087,-9.432036,0.91789126
1421110416988.00,-2.6973908,-9.363179,1.0831475
1421110417008.00,-2.723736,-9.494905,1.0340496
1421110417027.00,-2.6267376,-9.396709,0.9912387
1421110417048.00,-2.6008415,-9.376351,1.0183324
1421110417068.00,-2.6014402,-9.367371,0.9621991
1421110417088.00,-2.6078768,-9.383388,1.04348
1421110417199.00,-2.5565336,-9.4104805,1.0615925
1421110417200.00,-2.6330247,-9.388327,1.0340496
1421110417201.00,-2.6054819,-9.342971,0.9357042
1421110417205.00,-2.4900718,-9.472752,0.9223819
1421110417207.00,-2.5569828,-9.312285,1.0433304
1421110417208.00,-2.6191034,-9.369017,1.054108
1421110417254.00,-2.583328,-9.354048,0.98001206
1421110417255.00,-2.4771986,-9.369017,0.89768326
1421110417269.00,-2.449057,-9.333241,0.9621991
1421110417335.00,-2.64964,-9.375005,1.0539583
1421110417336.00,-2.5224047,-9.488768,0.8547226
1421110417336.00,-2.5810826,-9.494756,0.9520203
1421110417349.00,-2.58722,-9.504635,0.94842774
1421110417369.00,-2.5444088,-9.449999,0.97372514
1421110417388.00,-2.5664132,-9.409284,1.0684781
1421110417413.00,-2.509681,-9.36258,0.9466315
1421110417429.00,-2.588118,-9.418863,0.90816146
1421110417450.00,-2.624193,-9.350156,0.9898915
1421110417468.00,-2.5777895,-9.338032,0.9883946
1421110417489.00,-2.5236022,-9.342821,0.907413
1421110417508.00,-2.6384134,-9.378597,0.9446855
1421110417528.00,-2.451602,-9.400601,0.9729767
1421110417548.00,-2.5649161,-9.406589,0.9451346
1421110417570.00,-2.4812403,-9.282946,1.024769
1421110417589.00,-2.605931,-9.428294,1.0624906
1421110417683.00,-2.531386,-9.380543,0.9533675
1421110417684.00,-2.612218,-9.398506,0.88690567
1421110417686.00,-2.5716522,-9.505084,1.0047107
1421110417688.00,-2.5836272,-9.382639,1.0115963
1421110417690.00,-2.5685089,-9.355096,1.0047107
1421110417708.00,-2.5345294,-9.442065,0.8211923
1421110417728.00,-2.5530908,-9.342223,0.8773256
1421110417750.00,-2.5613236,-9.406289,0.9331595
1421110417768.00,-2.4849825,-9.463321,1.0012679
1421110417788.00,-2.5273445,-9.349258,1.0666819
1421110417808.00,-2.4903712,-9.384734,0.99438214
1421110417828.00,-2.490521,-9.39162,0.9804611
1421110417848.00,-2.6566753,-9.475146,0.80487627
1421110417869.00,-2.5738976,-9.404643,0.8855585
1421110417889.00,-2.6282346,-9.392668,0.87777466
1421110417908.00,-2.5680597,-9.438323,0.9648935
1421110417962.00,-2.5706043,-9.391919,0.90876025
1421110417962.00,-2.520309,-9.412876,0.8890013
1421110417970.00,-2.4590864,-9.387877,0.91804093
1421110417989.00,-2.533781,-9.467961,0.99363375
1421110418008.00,-2.598596,-9.378298,0.97597045
1421110418028.00,-2.5218058,-9.3558445,0.91579556
1421110418048.00,-2.5047414,-9.399404,0.90277267
1421110418070.00,-2.4929159,-9.430689,0.9485774
1421110418089.00,-2.538122,-9.358539,0.7921527
1421110418111.00,-2.6798773,-9.397608,0.83795744
1421110418128.00,-2.603087,-9.38189,0.84619033
1421110418148.00,-2.6209,-9.482481,0.71326673
1421110418168.00,-2.6262887,-9.299861,0.88286406
1421110418188.00,-2.6517358,-9.255853,0.9621991
1421110418208.00,-2.579436,-9.231303,1.0987152
1421110418228.00,-2.6406586,-9.234147,1.1431727
1421110418248.00,-2.6418562,-9.428593,1.0431807
1421110418307.00,-2.6186545,-9.351204,1.045426
1421110418307.00,-2.6403594,-9.380992,1.013692
1421110418308.00,-2.7460396,-9.411379,0.98105985
1421110418332.00,-2.7156527,-9.364377,0.85382444
1421110418348.00,-2.4704626,-9.402248,0.73212755
1421110418370.00,-2.5307872,-9.417965,0.92807007
1421110418388.00,-2.556384,-9.348809,0.90591615
1421110418414.00,-2.5574317,-9.427096,0.7792795
1421110418428.00,-2.588118,-9.436227,0.79005706
1421110418448.00,-2.6104217,-9.45853,0.8457413
1421110418468.00,-2.6593697,-9.465716,0.9372011
1421110418488.00,-2.5629702,-9.389824,0.70009416
1421110418511.00,-2.6228456,-9.45449,0.7702982
1421110418532.00,-2.5647666,-9.384584,0.91639435
1421110418548.00,-2.5306375,-9.30974,0.81535447
1421110418569.00,-2.4935148,-9.298364,0.82089293
1421110418629.00,-2.5906627,-9.386231,0.8295749
1421110418630.00,-2.4147785,-9.542955,0.98285615
1421110418631.00,-2.4752526,-9.337732,1.0585986
1421110418648.00,-2.4312441,-9.289682,0.99363375
1421110418668.00,-2.5418642,-9.381741,0.9288185
1421110418688.00,-2.6354196,-9.3437195,0.9153465
1421110418708.00,-2.6214986,-9.339828,0.92687255
1421110418732.00,-2.6927505,-9.366622,0.9346564
1421110418760.00,-2.614463,-9.352402,0.8628058
1421110418770.00,-2.7286756,-9.2747135,0.9301657
1421110418791.00,-2.5206084,-9.333691,0.91863966
1421110418808.00,-2.4418721,-9.304951,0.920885
1421110418828.00,-2.5879683,-9.475895,0.9783655
1421110418848.00,-2.4998016,-9.380094,0.8551717
1421110418868.00,-2.5839267,-9.432335,0.9147478
