time_milisec,ax,ay,az
1421714715106.00,-0.9406439,4.8572493,8.936866
1421714715107.00,-0.9134006,4.8267126,8.918903
1421714715145.00,-0.9451346,4.9527507,8.842861
1421714715151.00,-0.9298663,4.9320936,8.747659
1421714715175.00,-0.80397815,4.763694,8.687783
1421714715189.00,-0.87268525,4.7430367,8.618777
1421714715208.00,-1.0900333,4.9388294,8.772358
1421714715227.00,-1.0023156,4.8493156,8.917556
1421714715248.00,-0.9032217,4.858746,8.935219
1421714715268.00,-0.9086105,4.8062053,9.041947
1421714715287.00,-0.75877213,4.799619,8.801996
1421714715307.00,-0.7072792,4.862189,8.679701
1421714715327.00,-0.6180647,4.907994,8.47343
1421714715348.00,-0.5936655,4.7767167,8.448132
1421714715367.00,-0.6264473,4.929848,8.533455
1421714715387.00,-0.64036834,4.796476,8.780591
1421714715406.00,-0.7949968,4.862189,8.853788
1421714715429.00,-0.8053253,4.944817,8.678204
1421714715448.00,-0.74634796,4.955146,8.697663
1421714715468.00,-0.7056326,4.82821,8.556208
1421714715487.00,-0.712668,4.9003596,8.447384
1421714715507.00,-0.7325766,4.7892904,8.629854
1421714715528.00,-0.7123686,4.905449,8.592881
1421714715547.00,-0.7421567,4.7825546,8.6788025
1421714715567.00,-0.7336244,4.574038,8.865614
1421714715589.00,-0.655936,4.6815147,9.059311
1421714715607.00,-0.72239774,4.8470707,8.972342
1421714715630.00,-0.6870712,4.9127836,8.820707
1421714715651.00,-0.7789801,4.7354026,8.672067
1421714715673.00,-0.68302965,4.832401,8.68449
1421714715689.00,-0.91205335,4.8791037,8.726852
1421714715707.00,-0.88436097,4.894372,8.73284
1421714715727.00,-0.7319778,4.78959,8.634046
1421714715750.00,-0.73601943,4.898713,8.7769985
1421714715774.00,-0.8611592,5.0027466,8.94944
1421714715787.00,-0.755479,4.824168,8.996891
1421714715807.00,-0.78781176,4.8773074,8.737929
1421714715826.00,-0.89229447,4.9385304,8.647517
1421714715847.00,-0.77972853,4.8919773,8.605604
1421714715867.00,-0.8089178,4.8738647,8.729996
1421714715887.00,-0.73601943,4.8705716,8.696765
1421714715907.00,-0.7048842,4.815486,8.714877
1421714715927.00,-0.62225604,4.770879,8.748557
1421714715947.00,-0.82493454,4.711153,8.821007
1421714715966.00,-0.71730834,4.8556027,8.803942
1421714715987.00,-0.75592804,4.8433285,8.743767
1421714716007.00,-0.45610154,4.905,8.800948
1421714716027.00,-0.6312373,4.9374824,8.71817
1421714716047.00,-0.7209009,4.844975,8.676407
1421714716067.00,-0.56342834,4.821773,8.779693
1421714716087.00,-0.45879593,4.8460226,8.553962
1421714716106.00,-0.5525011,4.816983,8.648266
1421714716127.00,-0.55774015,4.5993357,8.625962
1421714716147.00,-0.6225554,4.8331494,8.7999
1421714716167.00,-0.599653,4.8608418,8.945996
1421714716187.00,-0.6445596,4.876709,8.922646
1421714716210.00,-0.81011534,5.0868716,8.753797
1421714716229.00,-0.67225206,5.146747,8.663384
1421714716250.00,-0.655936,5.1332755,8.731343
1421714716270.00,-0.70967424,4.8942223,8.680449
1421714716290.00,-0.58618104,4.8644342,8.6523075
1421714716309.00,-0.6303392,4.839287,8.715177
1421714716329.00,-0.56028485,4.9044013,8.672516
1421714716349.00,-0.5517526,4.9496074,8.835377
1421714716369.00,-0.5761519,4.7744713,8.844508
1421714716389.00,-0.56881714,4.8117437,8.766969
1421714716409.00,-0.5616321,4.746629,8.933872
1421714716429.00,-0.60549086,4.872967,8.673862
1421714716449.00,-0.65488815,4.8907795,8.576116
1421714716468.00,-0.66342044,4.926705,8.627758
1421714716489.00,-0.61252624,4.9523015,8.7543955
1421714716516.00,-0.7113208,5.116959,8.643026
1421714716528.00,-0.5908214,4.9937654,8.6699705
1421714716548.00,-0.68467623,4.9585886,8.827593
1421714716567.00,-0.65608567,4.9115863,8.89645
1421714716588.00,-0.7086264,4.9024553,8.750653
1421714716608.00,-0.635728,4.7157936,8.648565
1421714716627.00,-0.62165725,5.024302,8.591683
1421714716647.00,-0.57420594,4.841233,8.839718
1421714716670.00,-0.52001864,4.772675,8.630154
1421714716687.00,-0.7830217,4.830305,8.748707
1421714716708.00,-0.7503896,5.026697,8.713231
1421714716727.00,-0.560734,4.920867,8.6892805
1421714716747.00,-0.79484713,4.8822474,8.697364
1421714716767.00,-0.79035646,4.8460226,8.619226
1421714716786.00,-0.7391629,4.757706,8.705447
1421714716807.00,-0.748743,4.834197,8.86741
1421714716826.00,-0.6601273,4.8091993,8.759335
1421714716846.00,-0.6369255,4.881948,8.711734
1421714716866.00,-0.63647646,4.9139814,8.74736
1421714716888.00,-0.6018984,4.8898816,8.893157
1421714716907.00,-0.73093003,4.986131,8.929082
1421714716927.00,-0.8162526,5.0778904,8.809481
1421714716950.00,-0.7084767,4.8714695,8.690778
1421714716975.00,-0.5825885,4.911137,8.735684
1421714716999.00,-0.6288423,4.9481106,8.753497
1421714717007.00,-0.5652246,4.928651,8.792715
1421714717028.00,-0.8020322,4.90021,8.784931
1421714717048.00,-0.6730005,4.780459,8.8966
1421714717067.00,-0.5037025,4.6608577,8.750653
1421714717090.00,-0.6655161,4.8008165,8.813373
1421714717109.00,-0.63018954,4.7672863,8.960965
1421714717127.00,-0.5866301,4.7858477,8.873398
1421714717147.00,-0.66686326,5.0216074,8.993748
1421714717167.00,-0.6294411,5.046306,8.758736
1421714717193.00,-0.59501266,5.093009,8.847951
1421714717213.00,-0.6854246,4.903054,8.796906
1421714717229.00,-0.5733078,5.1159115,8.818013
1421714717250.00,-0.66162413,5.098248,8.813672
1421714717270.00,-0.74290514,5.072951,8.711584
1421714717293.00,-0.79140425,4.9003596,8.711584
1421714717311.00,-0.57540345,4.766538,8.722811
1421714717358.00,-0.63632673,4.666995,8.7632265
1421714717359.00,-0.7984396,4.8792534,8.884475
1421714717367.00,-0.7614665,4.9663725,8.800349
1421714717388.00,-0.58737856,4.934339,8.592432
1421714717411.00,-0.74485105,5.0485516,8.5011215
1421714717430.00,-0.73332506,4.8817983,8.576565
1421714717447.00,-0.780477,4.9496074,8.672366
1421714717467.00,-0.690065,4.8327003,8.847502
1421714717488.00,-0.74769515,4.9572415,8.842113
1421714717507.00,-0.67644334,4.9898734,8.710835
1421714717527.00,-0.64695466,4.855902,8.710087
1421714717575.00,-0.65339124,4.797823,8.907826
1421714717575.00,-0.66791105,4.8888335,8.907826
1421714717590.00,-0.5993536,4.8533573,8.567883
1421714717622.00,-0.6939569,4.8096485,8.414303
1421714717629.00,-0.5598358,5.052294,8.630004
1421714717676.00,-0.7033873,5.005591,8.815618
1421714717687.00,-0.70144135,4.6913943,9.094189
1421714717689.00,-0.6870712,4.8307543,9.062005
1421714717737.00,-0.70398605,4.9044013,8.913215
1421714717738.00,-0.669857,4.9753537,8.921747
1421714717750.00,-0.76161623,4.9630795,8.571625
1421714717778.00,-0.66132474,4.936884,8.693921
1421714717789.00,-0.6703061,5.024751,8.876242
1421714717814.00,-0.84364563,4.8972163,9.087902
1421714717829.00,-0.637674,4.8837442,8.761431
1421714717855.00,-0.63093793,4.951254,8.691227
1421714717906.00,-0.635728,4.918921,8.531359
1421714717907.00,-0.68692154,5.053042,8.630603
1421714717907.00,-0.7575746,5.1213,8.850795
1421714717955.00,-0.72359526,5.074298,8.696166
1421714717956.00,-0.7541318,5.040468,8.683144
1421714717967.00,-0.7988887,4.9879274,8.663834
1421714717994.00,-0.92687255,4.975803,8.821007
1421714718021.00,-0.9288185,5.1494417,8.768765
1421714718026.00,-1.0542576,5.083279,8.609197
1421714718055.00,-1.0340496,5.134922,8.228988
1421714718066.00,-1.3415103,5.322781,5.9761724
1421714718100.00,-1.6223264,5.7218513,7.7754307
1421714718135.00,-1.0958711,4.6523256,9.525442
1421714718136.00,-1.377286,5.0272956,9.043444
1421714718149.00,-1.4940431,5.507946,8.632548
1421714718174.00,-1.2139755,5.3251762,8.733289
1421714718190.00,-0.8804691,5.2660494,8.537646
1421714718241.00,-1.0581496,5.485044,8.255632
1421714718242.00,-1.0467732,5.474715,8.195607
1421714718248.00,-0.8571176,5.1157618,8.6506605
1421714718266.00,-0.84484315,4.879403,8.930878
1421714718286.00,-0.9122031,5.004992,9.0132065
1421714718307.00,-0.859812,5.064718,8.859776
1421714718327.00,-0.7905061,5.000352,8.678204
1421714718348.00,-0.9610016,5.139113,8.572523
1421714718367.00,-0.8878038,5.2937417,8.420739
1421714718386.00,-0.9264235,5.263804,8.552016
1421714718407.00,-0.89244413,5.0349298,8.973689
1421714718426.00,-0.9277707,4.902755,9.000034
1421714718446.00,-0.7503896,4.931794,8.58869
1421714718467.00,-0.49322432,4.8362927,8.568931
1421714718490.00,-0.44786865,4.8467712,9.021589
1421714718509.00,-0.3198848,4.5463457,9.033565
1421714718530.00,-0.33335677,4.502487,8.813822
1421714718550.00,-0.40011796,4.5768824,8.663534
1421714718569.00,-0.39263353,4.4641666,8.762179
1421714718588.00,-0.42691222,4.392017,9.085057
1421714718609.00,-0.43873763,4.3830357,9.128617
1421714718629.00,-0.48813492,4.720883,8.746612
1421714718649.00,-0.5411247,4.843777,8.680748
1421714718669.00,-0.49277526,4.52988,8.690029
1421714718688.00,-0.6459068,4.5463457,9.042397
1421714718709.00,-0.6221063,4.593348,9.14164
1421714718734.00,-0.83002394,4.6812153,8.765772
1421714718749.00,-0.82179105,4.9681687,8.597222
1421714718768.00,-0.77673477,4.9996033,8.710985
1421714718788.00,-0.8125104,5.03478,8.157736
1421714718807.00,-1.1826906,5.2823653,8.876691
1421714718829.00,-1.2108321,4.7327085,9.1869955
1421714718847.00,-1.0157876,4.8660808,8.816516
1421714718868.00,-0.94992465,5.0816326,8.398136
1421714718894.00,-0.85427356,5.157974,8.587193
1421714718933.00,-1.0223739,5.000202,8.925639
1421714718946.00,-1.018033,4.9249086,8.954379
1421714718948.00,-0.7807764,4.90994,8.664882
1421714718968.00,-0.76535845,4.951853,8.536149
1421714718994.00,-0.66401917,4.8084507,8.702454
1421714719015.00,-0.7408095,4.870272,8.9795265
1421714719027.00,-0.6280939,4.7180386,8.938961
1421714719047.00,-0.6950047,4.8779063,8.774603
1421714719067.00,-0.6709049,4.916526,8.702602
1421714719091.00,-0.624651,4.9620314,8.6032095
1421714719110.00,-0.71476364,4.8810496,8.6909275
1421714719128.00,-0.7220984,4.8551536,8.614885
1421714719148.00,-0.77074724,4.8202763,8.664433
1421714719168.00,-0.68767,4.819977,8.723709
1421714719188.00,-0.6768924,4.815336,8.6523075
1421714719210.00,-0.8211923,4.9981065,8.550818
1421714719228.00,-0.75023985,4.8407836,8.6208725
1421714719248.00,-0.7496411,4.8362927,8.561895
1421714719268.00,-0.7316785,4.888534,8.65081
1421714719288.00,-0.66506696,4.854854,8.759634
1421714719309.00,-0.62959075,5.0292416,8.812774
1421714719330.00,-0.7686516,4.8186297,8.668474
1421714719348.00,-0.76131684,4.7979727,8.696615
1421714719368.00,-0.6905141,4.9729586,8.856183
1421714719389.00,-0.8255333,5.0623226,9.056168
1421714719424.00,-0.68243086,4.952152,8.869805
1421714719449.00,-0.77269316,5.0481024,8.495434
1421714719450.00,-0.8378078,5.0130754,8.423733
1421714719482.00,-0.9883946,5.028194,8.431367
1421714719489.00,-1.1922706,5.05873,8.6506605
1421714719519.00,-1.1855347,5.13582,7.945627
1421714719529.00,-1.1606864,5.4971685,8.444539
1421714719553.00,-1.2725039,5.088369,8.969647
1421714719593.00,-1.104104,5.0000525,8.641081
1421714719593.00,-1.2340338,5.3947816,8.551268
1421714719618.00,-1.0813513,5.1657577,8.572823
1421714719628.00,-0.74829394,5.0260983,8.601414
1421714719655.00,-0.77149564,4.9657736,8.697813
1421714719682.00,-0.85562074,5.1144147,8.811726
1421714719687.00,-0.8105644,5.002597,8.665929
1421714719707.00,-0.818947,4.869823,8.813672
1421714719727.00,-0.7117699,4.7705793,8.802296
1421714719747.00,-0.6915619,4.916376,8.736282
1421714719769.00,-0.65458876,4.898713,8.506361
1421714719790.00,-0.90187454,4.9314947,8.575517
1421714719808.00,-0.83690965,5.035828,8.62746
1421714719828.00,-0.84604067,5.024302,8.744366
1421714719850.00,-0.82643145,5.0912127,8.522827
1421714719873.00,-0.86160827,5.144951,8.635991
1421714719897.00,-0.8466394,5.048851,8.580606
1421714719908.00,-0.8952882,5.0777407,8.50696
1421714719927.00,-0.92971665,4.9802933,8.627609
1421714719947.00,-0.81191164,4.752018,8.813672
1421714719966.00,-0.88031936,4.9494576,8.936117
1421714719988.00,-0.8821156,4.9087424,8.763526
1421714720008.00,-0.8027806,5.0033455,8.716374
1421714720027.00,-0.9428893,4.91458,8.654103
1421714720048.00,-0.8017328,4.835245,8.916807
1421714720067.00,-0.8699908,4.813989,8.9618635
1421714720089.00,-0.9913884,4.8316526,8.686437
1421714720109.00,-1.1789484,4.9003596,8.841064
1421714720129.00,-1.0294093,4.8779063,8.682694
1421714720147.00,-0.7936496,5.0033455,8.621771
1421714720168.00,-0.8425978,5.0226555,8.546777
1421714720188.00,-0.96040285,4.977749,8.5354
1421714720210.00,-0.9833052,4.9681687,8.7455635
1421714720228.00,-0.94393706,4.713099,8.915161
1421714720248.00,-0.8222401,4.8039603,8.751102
1421714720267.00,-0.89334226,4.841831,8.7157755
1421714720288.00,-0.9827064,4.898264,8.700357
1421714720307.00,-0.8123607,4.8210244,8.8211565
1421714720327.00,-0.74410266,4.8680267,8.807534
1421714720349.00,-0.7478449,4.964127,8.896001
1421714720368.00,-0.8602611,4.8633866,8.731643
1421714720388.00,-0.9681866,4.7225294,8.572972
1421714720408.00,-1.0457253,4.9302974,8.910221
1421714720427.00,-1.0050101,4.934489,8.860374
1421714720447.00,-0.82613206,4.9464636,8.90603
1421714720469.00,-1.0205777,4.8442264,8.657995
1421714720489.00,-1.0098001,4.8138394,8.624764
1421714720509.00,-0.87912184,4.7865963,8.681197
1421714720532.00,-0.8946895,4.944817,8.671917
1421714720549.00,-0.9713301,5.0413666,8.692124
1421714720568.00,-0.94019485,4.922813,8.619825
1421714720587.00,-0.9885443,5.0623226,8.64138
1421714720608.00,-0.95097244,5.176386,8.55471
1421714720630.00,-0.91863966,5.0732503,8.708141
1421714720649.00,-0.88540876,5.072951,8.73269
1421714720677.00,-1.0096505,5.0187635,8.637339
1421714720690.00,-0.9665401,5.1057324,8.359816
1421714720718.00,-0.7705975,5.0434623,8.466992
1421714720730.00,-0.9077124,5.0446596,8.601264
1421714720749.00,-0.7994875,4.9488587,8.609047
1421714720768.00,-0.81191164,5.0286427,8.504265
1421714720787.00,-0.7867639,5.0686097,8.447234
1421714720807.00,-0.8545729,4.7806087,8.60276
1421714720828.00,-0.80742097,4.9523015,8.7543955
1421714720847.00,-0.690065,5.0302896,8.740324
1421714720867.00,-0.5800438,4.889732,8.553513
1421714720887.00,-0.76790315,4.9967594,8.6981125
1421714720910.00,-0.87148774,4.9552956,8.690778
1421714720928.00,-0.66955763,4.8389874,8.663834
1421714720949.00,-0.6554869,5.03014,8.621322
1421714720977.00,-0.7557784,4.87611,8.6136875
1421714720997.00,-0.8270302,5.057383,8.750054
1421714721007.00,-0.9298663,5.088369,8.845256
1421714721028.00,-0.9017249,5.080585,8.681946
1421714721049.00,-0.6673123,5.1207013,8.802445
1421714721068.00,-0.79230237,4.985682,8.648416
1421714721089.00,-0.7469467,4.918023,8.644224
1421714721110.00,-0.8276289,5.0168176,8.836874
1421714721128.00,-0.8789722,4.8080015,8.97324
1421714721149.00,-0.9261241,4.812792,8.8934555
1421714721168.00,-0.9922865,5.222939,8.58345
1421714721187.00,-0.7620653,5.0822315,8.504864
1421714721210.00,-0.7569759,5.0798364,8.513097
1421714721230.00,-0.907413,4.958289,8.62222
1421714721248.00,-0.8810678,5.0693583,8.630902
1421714721270.00,-0.83376616,4.8788047,8.712632
1421714721289.00,-0.98674804,4.8734155,8.767568
1421714721372.00,-0.9942325,4.9311957,8.751251
1421714721373.00,-0.90591615,5.083279,8.61264
1421714721373.00,-0.8858578,5.0316367,8.609646
1421714721374.00,-0.96833634,4.943919,8.610095
1421714721411.00,-0.954565,4.955894,8.695268
1421714721411.00,-0.91609496,4.8919773,8.584349
1421714721478.00,-0.87373304,4.971761,8.633596
1421714721479.00,-0.84873503,5.0307384,8.682096
1421714721480.00,-0.8861572,4.943021,8.754096
1421714721503.00,-0.9574091,4.8734155,8.778794
1421714721508.00,-0.8310718,4.893923,8.725205
1421714721541.00,-0.85936296,4.9966097,8.696016
1421714721608.00,-0.8117619,4.8803015,8.70365
1421714721610.00,-0.84065187,5.026248,8.776849
1421714721610.00,-0.9116043,5.003495,8.773107
1421714721611.00,-0.8544232,4.934788,8.6401825
1421714721640.00,-0.64830184,4.906497,8.543334
1421714721695.00,-0.8032297,4.883445,8.573871
1421714721695.00,-0.7649094,4.9475117,8.494985
1421714721696.00,-0.64635587,4.988826,8.399184
1421714721729.00,-0.5676196,4.812193,8.542585
1421714721730.00,-0.5755531,4.788692,8.552615
1421714721778.00,-0.6979985,4.997358,8.582104
1421714721778.00,-0.443378,4.9240103,8.349338
1421714721795.00,-0.19549347,4.979994,7.816446
1421714721849.00,-0.23456222,5.0254993,7.8782673
1421714721849.00,-0.18291962,4.461921,8.029303
1421714721850.00,-0.26045838,4.29906,8.966654
1421714721907.00,-2.99E-04,4.364923,9.293873
1421714721908.00,0.32093263,5.0130754,8.550369
1421714721908.00,-0.048648834,3.3971856,8.050559
1421714721929.00,-0.011376343,5.4563036,9.1814575
1421714721979.00,0.2812651,2.258803,11.963272
1421714721979.00,-0.40924895,3.5895355,10.901979
1421714722036.00,0.23037094,3.520978,9.276659
1421714722036.00,1.1084449,3.670068,9.056168
1421714722037.00,0.9261241,4.017945,9.648486
1421714722088.00,0.78481793,4.1387434,9.609567
1421714722088.00,0.90277267,2.6560767,8.503966
1421714722089.00,0.13217515,3.8935533,7.4125853
1421714722149.00,-0.46942383,3.0243108,9.010512
1421714722149.00,0.2932402,2.915038,8.927585
1421714722150.00,0.3992198,3.7591329,7.83845
1421714722206.00,0.7149133,3.4769697,7.715555
1421714722207.00,0.5098398,2.566862,7.5140743
1421714722208.00,-1.797013,6.542744,12.372821
1421714722262.00,1.1579919,2.274071,5.8019347
1421714722263.00,-0.27363098,8.514594,7.147187
1421714722268.00,1.0000703,7.68442,7.2278695
1421714722317.00,1.0710227,4.383185,7.0212994
1421714722318.00,0.5599855,5.120402,7.1171
1421714722341.00,0.09834549,6.7599425,7.6064324
1421714722504.00,0.9865984,4.4358754,7.9824505
1421714722505.00,0.9963281,4.249064,8.005802
1421714722506.00,2.0507355,4.4596763,8.013137
1421714722507.00,2.4839346,3.9820194,7.276219
1421714722508.00,2.6795778,3.6685712,7.0705466
1421714722510.00,2.0252883,3.1696587,7.5616755
1421714722510.00,1.6329542,2.5397685,8.552465
1421714722512.00,1.642684,2.4221132,9.452094
1421714722513.00,2.1249812,2.6762846,8.186775
1421714722533.00,2.2891896,3.5486705,6.821315
1421714722569.00,3.218008,4.0046225,4.658313
1421714722570.00,0.7363188,4.5638595,3.8583765
1421714722637.00,2.5590785,3.474874,5.747897
1421714722640.00,5.1591716,4.516857,7.8377013
1421714722641.00,4.761598,3.082989,9.467662
1421714722648.00,3.008294,1.7230668,11.087743
1421714722672.00,2.6053321,2.1142035,10.88252
1421714722688.00,2.891537,2.9142897,7.834558
1421714722708.00,3.5786083,2.492467,7.672146
1421714722729.00,3.5479221,1.9197578,8.31925
1421714722753.00,4.668342,1.2885205,8.0227165
1421714722769.00,6.105354,2.340982,6.624325
1421714722790.00,6.0758653,2.206262,7.276219
1421714722809.00,5.029541,1.1621833,9.862391
1421714722831.00,5.651797,-1.3006454,10.985655
1421714722848.00,8.28093,0.5769003,7.49207
1421714722869.00,9.316028,1.522933,6.808292
1421714722888.00,8.958271,0.8060738,10.548414
1421714722953.00,6.1560984,-0.37766466,8.647966
1421714722954.00,6.3795834,-0.5550458,8.00221
1421714722961.00,7.270082,-0.1790277,7.6764865
1421714722981.00,7.237899,-0.6342311,7.78082
1421714723004.00,6.5854053,-0.99557966,7.015162
1421714723015.00,6.4479914,-1.3730947,5.8212447
1421714723027.00,7.5100327,-2.254911,4.2519083
1421714723048.00,8.713531,-4.3417215,5.3908896
1421714723076.00,8.226144,-6.2050467,6.5526237
1421714723090.00,7.3971677,-7.1941895,6.4102697
1421714723109.00,8.696615,-5.036726,5.9974284
1421714723127.00,9.677376,-4.56356,5.1612673
1421714723147.00,9.799671,-5.0868716,5.206922
1421714723167.00,10.155781,-6.2518992,4.9918194
1421714723188.00,10.185719,-5.517526,4.2724156
1421714723212.00,10.13213,-5.001699,3.0698164
1421714723300.00,9.318722,-4.603677,2.592459
1421714723301.00,8.158035,-4.8225217,2.5987458
1421714723303.00,7.551646,-5.187762,3.0855336
1421714723304.00,7.427255,-5.6136265,3.9454954
1421714723335.00,7.0448003,-5.4384904,3.6122882
1421714723336.00,6.6690817,-5.704637,2.7912455
1421714723349.00,7.206015,-5.9896445,2.4990532
1421714723368.00,8.811426,-5.298831,2.4486082
1421714723402.00,9.226364,-4.849765,2.6071284
1421714723408.00,9.707014,-4.82327,2.6358688
1421714723433.00,10.406659,-3.8977447,2.153871
1421714723450.00,10.924283,-2.9207263,2.555935
1421714723468.00,10.600805,-2.5491989,2.6613157
1421714723487.00,10.418335,-2.3037095,1.9628682
1421714723508.00,8.14621,-0.67644334,2.3742127
1421714723589.00,5.4093013,-1.5967296,2.5288413
1421714723590.00,3.7116816,-2.359693,2.5093818
1421714723605.00,3.2705488,-1.8766475,3.7709582
1421714723606.00,5.760321,-2.3327491,3.369493
1421714723607.00,8.012837,-2.1195922,-2.433789
1421714723641.00,8.320747,-1.5519726,-4.3504033
1421714723664.00,8.95902,-3.1659164,-2.6469457
1421714723675.00,7.681875,-4.705914,-1.1457175
1421714723690.00,9.371263,-5.8971367,2.9039612
1421714723708.00,7.22772,-5.4771104,-0.680934
1421714723734.00,5.649552,-5.3102074,0.18770966
1421714723754.00,7.3443274,-8.200996,1.5298188
1421714723775.00,5.363497,-6.6994686,0.84708846
1421714723791.00,3.247796,-5.278623,-2.43813
1421714723809.00,4.7609997,-9.52589,2.6161098
1421714723828.00,6.440507,-9.597442,4.1626935
1421714723850.00,7.212751,-10.953173,-1.8059944
1421714723871.00,8.945099,-14.410383,-1.988914
1421714724008.00,8.23258,-11.15181,-2.645299
1421714724009.00,5.4591475,-5.123995,-2.8936327
1421714724023.00,5.668113,-4.3269024,2.915038
1421714724036.00,6.5475345,-5.599107,2.6557772
1421714724037.00,5.547314,-6.62163,1.4298266
1421714724038.00,5.5619836,-7.707023,-0.07110214
1421714724039.00,4.141737,-9.162297,0.21405487
1421714724040.00,3.50077,-9.809102,0.37511992
1421714724051.00,4.5795765,-8.57402,0.5123845
1421714724068.00,3.7429664,-8.852441,-0.22138962
1421714724088.00,1.3479469,5.7697515,3.1657667
1421714724109.00,5.2355127,2.403402,-2.9993129
1421714724137.00,7.356901,-3.4717305,1.7464184
1421714724148.00,3.1713052,-7.7649527,2.330354
1421714724172.00,-0.8985814,-7.5850267,-2.3297553
1421714724188.00,-4.374653,-8.567883,-4.374503
1421714724209.00,0.41059616,-8.60276,0.5522017
1421714724294.00,-1.4462924,-9.175469,4.375252
1421714724295.00,-1.7585431,-8.531808,-2.0124152
1421714724297.00,-1.8164726,-6.9331326,-2.9716206
1421714724298.00,-1.8047969,-6.296806,0.85562074
1421714724322.00,-1.859134,-7.199129,1.196911
1421714724330.00,-3.0511053,-9.493408,-0.4514612
1421714724348.00,-2.0335212,-5.203629,0.330363
1421714724369.00,-5.9017773,-11.417956,1.2997471
1421714724394.00,-11.696976,-18.47069,4.262686
1421714724407.00,-0.18800904,-5.040169,-8.014334
1421714724428.00,0.92298067,-2.1374052,-5.8457937
1421714724447.00,-2.0631597,-13.099858,-0.13606705
1421714724468.00,-4.2252636,-11.208692,0.97911394
1421714724489.00,-3.0311966,-7.6149645,1.5398479
1421714724508.00,-2.7378068,-7.981702,1.9848725
1421714724528.00,-2.4059467,-8.946895,1.1799961
1421714724615.00,-2.3517594,-9.290131,0.11106903
1421714724616.00,-2.8431876,-9.285042,-0.32018417
1421714724617.00,-3.0352383,-9.203162,0.20013382
1421714724618.00,-3.203189,-9.207952,0.703537
1421714724630.00,-3.3004866,-9.465417,0.64860123
1421714724648.00,-3.2900083,-9.610914,0.27093658
1421714724668.00,-3.2847693,-9.378448,0.062869266
1421714724688.00,-3.0912218,-9.156459,-0.032931518
1421714724708.00,-2.9618907,-9.305998,0.3878435
1421714724730.00,-2.7425966,-9.369616,0.8491841
1421714724748.00,-2.74589,-9.4176655,0.966091
1421714724768.00,-2.7047255,-9.372609,0.7966434
1421714724790.00,-2.6249413,-9.516161,0.52450925
1421714724808.00,-2.7036777,-9.361233,0.6493497
1421714724828.00,-2.8246262,-9.307645,0.6661148
1421714724904.00,-2.8851004,-9.220975,0.7298822
1421714724910.00,-2.9536579,-9.226214,0.74544984
1421714724911.00,-2.8216324,-9.153465,0.959355
1421714724912.00,-2.8086095,-9.368269,0.9039702
1421714724934.00,-2.8336074,-9.111253,0.9922865
1421714724948.00,-2.7469378,-9.111103,1.2126284
1421714724968.00,-2.8404932,-9.258397,1.3124707
1421714724988.00,-2.8199859,-9.297466,1.267564
1421714725008.00,-2.7523265,-9.392069,1.2537928
1421714725028.00,-2.7258315,-9.320667,1.0398875
1421714725048.00,-2.7324178,-9.369466,1.133892
1421714725068.00,-2.7324178,-9.317374,1.178649
1421714725088.00,-2.8556118,-9.377399,1.3088782
1421714725108.00,-2.6177564,-9.464369,1.3087285
1421714725128.00,-2.5406666,-9.390573,1.4739848
1421714725148.00,-2.4478598,-9.356443,1.0442286
1421714725221.00,-2.1752765,-9.430988,0.89259386
1421714725222.00,-2.1276755,-9.467362,1.250799
1421714725222.00,-2.0454965,-9.356144,1.7660276
1421714725230.00,-1.9812799,-9.299861,1.8368303
1421714725248.00,-1.5540683,-9.553134,1.4900016
1421714725268.00,-1.5386504,-9.43518,1.5684384
1421714725288.00,-1.5399976,-9.46392,1.7417779
1421714725308.00,-1.7488133,-9.475146,1.8107845
1421714725331.00,-1.8217118,-9.490714,1.6907341
1421714725349.00,-2.0275338,-9.595796,1.540746
1421714725372.00,-2.273622,-9.726474,1.2582834
1421714725388.00,-2.706971,-9.596544,1.1035053
1421714725408.00,-3.0183234,-9.231603,1.031954
1421714725428.00,-2.9198282,-9.245973,0.9994716
1421714725448.00,-2.3589447,-9.2874365,1.0235715
1421714725468.00,-1.8694625,-9.370963,1.1678714
1421714725549.00,-1.4708414,-9.228609,1.4790742
1421714725550.00,-1.1716136,-9.311537,1.5509248
1421714725551.00,-1.2057426,-9.415421,1.4539266
1421714725552.00,-1.5783179,-9.474847,1.2927117
1421714725568.00,-2.239942,-9.5696,0.9533675
1421714725588.00,-2.1378543,-9.573642,0.47181883
1421714725608.00,-1.8624271,-9.579779,0.03876938
1421714725628.00,-1.477727,-9.600735,0.19294876
1421714725648.00,-1.0662328,-9.576486,0.7247928
1421714725669.00,-0.82074326,-9.473499,0.8319699
1421714725689.00,-0.39532793,-9.607921,0.21689896
1421714725708.00,-0.31195128,-10.202784,-1.0476713
1421714725728.00,-0.83661026,-10.754386,-2.0109184
1421714725748.00,-0.82044387,-11.487262,-1.6181351
1421714725774.00,-0.42272094,-11.932286,-0.63887143
1421714725788.00,-0.87927157,-12.216097,0.8002359
1421714725808.00,-2.9729676,-12.024645,0.43020537
1421714725872.00,-4.45294,-11.598182,-1.2485536
1421714725872.00,-4.9094906,-11.460319,-3.5389407
1421714725873.00,-5.0460067,-12.055929,-3.6884797
1421714725888.00,-4.218378,-12.471315,-3.8452039
1421714725908.00,-3.8983433,-12.528646,-2.300566
1421714725929.00,-3.160378,-13.4639015,2.1598585
1421714725948.00,-2.7418482,-12.472663,3.6211197
1421714725968.00,-0.7551796,-12.3597975,1.9121237
1421714725993.00,-0.07873627,-12.569961,-2.3049068
1421714726008.00,-2.5956025,-12.312496,-3.4717305
1421714726029.00,-3.218008,-11.614647,-2.0184028
1421714726048.00,-1.9543359,-10.238559,-2.3200254
1421714726068.00,-1.1157798,-9.042097,-2.2215302
1421714726088.00,-0.9199869,-8.183632,-2.2091062
1421714726109.00,-1.6759149,-7.1163516,-2.555935
1421714726128.00,-2.2815554,-6.3734465,-2.653981
1421714726148.00,-2.3218217,-5.8737855,-2.7220893
1421714726212.00,-2.136058,-5.0028963,-3.128644
1421714726212.00,-2.0299287,-4.38558,-3.7284467
1421714726214.00,-2.1402493,-3.663332,-4.131708
1421714726232.00,-1.8847307,-3.2376173,-4.524791
1421714726248.00,-1.7485139,-3.2621663,-4.932543
1421714726269.00,-1.7868342,-3.5586996,-5.5794973
1421714726287.00,-1.7748592,-3.5380425,-5.8439975
1421714726308.00,-1.6862434,-3.7332368,-6.0637403
1421714726328.00,-1.4286292,-4.293671,-6.2102857
1421714726348.00,-1.2744498,-4.483926,-6.3030925
1421714726371.00,-1.6549585,-4.3554926,-6.4984365
1421714726394.00,-1.7226177,-4.5286827,-6.4161077
1421714726408.00,-1.7504599,-4.9897237,-7.502249
1421714726428.00,-2.2626946,-8.431816,-9.147029
1421714726448.00,-2.4315436,-10.28137,-9.975855
1421714726468.00,-1.995201,-7.4919205,-7.959997
1421714726488.00,-1.87545,-5.823939,-7.0696487
1421714726556.00,-3.5866914,-4.535269,-5.288353
1421714726557.00,-4.008215,-6.724766,-5.8636065
1421714726558.00,-3.936963,-8.463999,-6.869365
1421714726568.00,-3.8462517,-9.691147,-6.508316
1421714726588.00,-3.37099,-9.711655,-5.7103252
1421714726608.00,-3.1061907,-8.972042,-4.9223638
1421714726628.00,-2.5415647,-8.234975,-3.7275486
1421714726648.00,-2.477498,-8.180638,-2.7496321
1421714726672.00,-2.3969655,-8.904982,-2.3698719
1421714726693.00,-2.1941373,-10.236763,-1.8446141
1421714726708.00,-1.7034576,-11.005564,-0.76670563
1421714726729.00,-0.70024383,-11.139984,-0.27033782
1421714726748.00,0.09624985,-10.559641,0.015867004
1421714726768.00,-0.38185593,-9.902208,0.042661287
1421714726789.00,-0.42152345,-9.938133,0.952619
1421714726854.00,-0.1498384,-10.273886,0.7777826
1421714726855.00,0.30072463,-9.669742,-0.80996567
1421714726856.00,-0.07768845,-9.070837,-1.289718
1421714726868.00,-0.42167312,-8.902437,-0.7048842
1421714726889.00,-0.42122406,-8.980275,-1.1144326
1421714726908.00,0.13471985,-9.062155,-1.2680131
1421714726928.00,0.9187894,-9.160501,-1.061293
1421714726953.00,1.8205142,-9.46362,-0.9789642
1421714726973.00,1.1160791,-9.638157,-0.69290906
1421714726989.00,-0.55923706,-9.841734,-1.4747332
1421714727008.00,-1.1464659,-9.831705,-1.7838405
1421714727028.00,-0.5752537,-9.783505,-1.2337345
1421714727048.00,-0.56627244,-10.023605,-0.85756665
1421714727070.00,-1.5277231,-10.019265,-0.527054
1421714727091.00,-2.2535636,-9.09853,-0.4472699
1421714727110.00,-0.73946226,-8.938811,-0.18291962
1421714727128.00,0.545316,-9.100625,-0.25686586
1421714727190.00,0.07574249,-9.100775,-0.41598496
1421714727191.00,-1.0457253,-8.89166,-0.4673282
1421714727192.00,-1.282982,-9.196725,-0.023201752
1421714727211.00,-1.2479548,-9.475595,1.0545571
1421714727228.00,-0.9142987,-10.405312,1.2054433
1421714727248.00,-0.47690827,-11.409124,1.1798465
1421714727268.00,-0.9048683,-11.8355875,1.2871733
1421714727288.00,-1.5301181,-11.842323,1.187331
1421714727310.00,-2.2565575,-12.885205,0.8508307
1421714727331.00,-2.32257,-14.333144,0.62285477
1421714727348.00,-2.4188201,-14.595099,-0.082628176
1421714727368.00,-2.8997698,-14.303206,-1.1075468
1421714727388.00,-3.3144076,-13.429922,-2.4126828
1421714727408.00,-3.1055918,-12.24798,-3.6784506
1421714727429.00,-2.329905,-12.030183,-4.4867697
1421714727448.00,-1.5120058,-12.730277,-5.6324873
1421714727468.00,-1.6137941,-12.927567,-6.403384
1421714727529.00,-2.4146287,-13.577815,-2.8858488
1421714727530.00,-2.0097208,-12.585528,5.1904564
1421714727531.00,-1.7461189,-13.722713,3.6982095
1421714727554.00,-4.1200323,-11.622581,-1.6991167
1421714727578.00,-4.8124924,-10.501712,-0.28830048
1421714727588.00,-1.7633331,-11.146122,1.6607964
1421714727608.00,0.45265868,-11.351495,-0.21151017
1421714727631.00,0.71191955,-9.70911,-0.008681946
1421714727648.00,-0.07933502,-8.026159,-1.3895603
1421714727671.00,-1.0318043,-6.8052983,-1.171464
1421714727688.00,-2.1035757,-5.9481807,0.043858796
1421714727708.00,-2.1029768,-5.26081,-1.0582993
1421714727728.00,-2.101929,-3.9014869,-2.7553203
1421714727748.00,-2.4728577,-3.2169602,-3.1144235
1421714727827.00,-3.0365853,-2.8029213,-2.417922
1421714727828.00,-2.9556038,-3.1476545,-2.119293
1421714727828.00,-2.193838,-2.9193792,-3.0014086
1421714727829.00,-1.5395485,-2.9151878,-5.6627245
1421714727849.00,-0.73407346,-2.762655,-6.409521
1421714727868.00,0.20776795,-3.5134935,-5.4640875
1421714727889.00,1.0671309,-4.3373804,-4.65008
1421714727908.00,0.6036946,-4.4825783,-5.1139655
1421714727928.00,-0.29608428,-4.3333387,-6.350544
1421714727948.00,-1.1027569,-3.722459,-7.837252
1421714727968.00,-1.0800041,-5.7814274,-10.418934
1421714727989.00,-1.5290703,-11.09867,-12.091556
1421714728009.00,-2.0026853,-13.154196,-8.8846245
1421714728028.00,-1.7637821,-10.667716,-5.484595
1421714728048.00,-4.297713,-4.963678,-3.1966026
1421714728069.00,-3.8931043,-4.54919,-4.652176
1421714728088.00,-3.1720536,-7.8362045,-5.520819
1421714728108.00,-3.8740938,-10.628049,-4.4384203
1421714728207.00,-3.8356237,-11.794872,-4.24143
1421714728208.00,-2.5391698,-10.980566,-3.576812
1421714728209.00,-1.7956659,-9.451795,-2.171684
1421714728210.00,-1.8791922,-8.674911,-1.2840298
1421714728211.00,-1.7238153,-8.668175,-0.631387
1421714728229.00,-1.0105486,-9.292077,-0.067359924
1421714728249.00,0.0809816,-10.637479,0.36164796
1421714728268.00,0.221689,-11.590847,-0.33171022
1421714728289.00,0.05733078,-11.84921,-0.33694932
1421714728312.00,0.0291893,-10.741962,0.1790277
1421714728328.00,-0.050894164,-9.654024,0.027542725
1421714728349.00,0.021255799,-9.021589,-0.50519943
1421714728368.00,0.086969145,-9.492809,-1.2533437
1421714728388.00,0.032482453,-9.737102,-1.1729608
1421714728409.00,1.50E-04,-9.166937,-0.4459227
1421714728428.00,0.5945636,-9.006321,0.21270767
1421714728492.00,0.7908055,-9.298813,-0.068407744
1421714728493.00,0.17543519,-9.433982,-1.6028668
1421714728494.00,-0.68467623,-9.084458,-2.0077748
1421714728508.00,-1.3082794,-9.527088,-2.329007
1421714728528.00,-0.7873627,-9.385932,-0.63617706
1421714728548.00,-0.9836046,-9.149573,-0.15283218
1421714728568.00,-1.5365547,-9.289682,-0.5119354
1421714728588.00,-1.9327807,-9.273815,-0.011226654
1421714728608.00,-1.0829979,-8.944799,-0.8608598
1421714728628.00,0.003442841,-9.023985,-1.9043399
1421714728648.00,0.45280838,-8.8829775,-1.0120454
1421714728670.00,-0.29488677,-8.848699,-0.50355285
1421714728689.00,-0.8273296,-9.135952,-0.28740233
1421714728708.00,-0.8143066,-9.82901,0.1194516
1421714728728.00,-0.547711,-10.10339,0.4219725
1421714728748.00,-0.5888754,-10.852732,0.77329195
1421714728829.00,-0.52076703,-11.685599,1.6557069
1421714728830.00,-0.33739838,-12.713662,2.8961773
1421714728831.00,-0.72075117,-13.441598,2.1731808
1421714728833.00,-1.5287709,-13.692027,0.79679304
1421714728848.00,-2.878065,-14.206657,0.26584718
1421714728868.00,-3.6001635,-14.2237215,-0.9476793
1421714728889.00,-3.3422499,-13.585599,-2.4719596
1421714728908.00,-3.1799872,-12.851376,-3.1660662
1421714728929.00,-2.958448,-12.225227,-3.4284704
1421714728951.00,-1.9538869,-12.369976,-3.9871087
1421714728969.00,-0.9183403,-12.290043,-5.9049206
1421714728989.00,-1.0340496,-12.524605,-6.660549
1421714729009.00,-0.8464897,-13.049264,-0.9168434
1421714729029.00,-1.044977,-13.043575,6.397247
1421714729048.00,-1.5838563,-13.444442,1.6796571
1421714729070.00,-4.2739124,-10.315648,-1.491199
1421714729121.00,-3.9224432,-10.375673,-0.66536635
1421714729122.00,-2.0618124,-10.855426,0.8690927
1421714729132.00,-1.3407619,-9.784553,-1.2802876
1421714729148.00,-0.39173537,-8.332422,-1.7317488
1421714729169.00,-0.57705003,-7.613767,-1.1229647
1421714729189.00,-1.4102174,-6.940168,-1.6959732
1421714729208.00,-1.4188994,-6.2893214,-0.80487627
1421714729232.00,-1.529669,-5.536387,-1.2888199
1421714729251.00,-2.060166,-4.7794113,-2.366429
1421714729272.00,-2.9621902,-3.7748501,-3.357069
1421714729288.00,-3.142565,-3.453169,-3.1530433
1421714729309.00,-2.7244844,-3.095413,-3.2389646
1421714729328.00,-2.1219873,-2.55354,-3.8318815
1421714729348.00,-2.2257216,-2.1615052,-4.9061975
1421714729368.00,-1.7368382,-2.4466622,-4.8603926
1421714729388.00,-0.825683,-2.8131,-4.8422804
1421714729475.00,0.07334747,-3.11607,-5.6833816
1421714729477.00,0.44113266,-3.1570847,-6.3843737
1421714729478.00,0.1594185,-3.204087,-8.016879
1421714729480.00,0.3966751,-5.25602,-11.749367
1421714729488.00,-0.9979747,-7.2724767,-11.531121
1421714729508.00,-2.6006918,-8.776549,-8.721165
1421714729529.00,-2.7521768,-10.313104,-5.5747075
1421714729549.00,-5.3561616,-6.810687,-4.282594
1421714729568.00,-2.8551626,-7.2250257,-5.905669
1421714729590.00,-3.0871801,-7.8704834,-5.4986653
1421714729609.00,-4.4045906,-9.540112,-4.2299037
1421714729628.00,-4.0180945,-10.38705,-3.9258862
1421714729649.00,-3.1808853,-10.212812,-3.4805622
1421714729668.00,-2.657873,-9.871971,-2.599195
1421714729688.00,-2.2757177,-9.605375,-1.6579523
1421714729709.00,-2.1109104,-9.392518,-0.9610016
1421714729731.00,-1.7381854,-9.686058,-0.73332506
1421714729832.00,-0.99587905,-10.322535,0.07349716
1421714729833.00,-0.0981958,-11.103161,0.24563919
1421714729834.00,0.3450325,-11.304642,-0.09460327
1421714729835.00,0.45834687,-10.552156,-0.003143463
1421714729836.00,0.547711,-9.987082,-0.17693207
1421714729852.00,0.45430526,-9.742939,-0.5272037
1421714729868.00,-0.09280701,-9.342671,-0.50924104
1421714729890.00,-0.120349735,-8.811726,-0.44517425
1421714729919.00,-0.27827132,-8.528665,-0.9665401
1421714729929.00,0.37227586,-9.057964,-1.2838801
1421714729948.00,1.052162,-9.528885,-1.4882053
1421714729969.00,0.9461824,-9.375604,-2.1992266
1421714729993.00,-0.37182677,-9.313482,-2.1842577
1421714730010.00,-0.8656499,-9.569301,-1.6679814
1421714730029.00,-1.0981164,-9.217532,-1.5631993
1421714730048.00,-1.2000545,-9.587563,-1.215173
1421714730069.00,-2.5706043,-9.321266,-0.13846207
1421714730090.00,-2.5942552,-8.546178,0.31015503
1421714730161.00,-0.36793488,-9.18924,-0.9735754
1421714730162.00,0.63872176,-9.449849,-1.1605366
1421714730164.00,0.37122804,-9.1941805,-1.4500346
1421714730170.00,-0.04805008,-9.065897,-0.43724075
1421714730190.00,-0.9333092,-9.423953,0.51028883
1421714730221.00,-1.1645782,-10.036329,1.0006691
1421714730236.00,-1.0981164,-10.5129385,1.3398638
1421714730249.00,-0.6788384,-11.627071,1.64942
1421714730277.00,-0.6161188,-12.644356,2.206262
1421714730289.00,-1.4338683,-12.34423,1.1831397
1421714730308.00,-2.6940975,-13.348342,0.97177917
1421714730329.00,-3.201243,-14.290632,0.8569679
1421714730348.00,-2.5230033,-13.918207,-0.41433838
1421714730368.00,-2.296674,-13.3585205,-1.6146922
1421714730388.00,-2.5262966,-12.691807,-2.270179
1421714730451.00,-2.1270766,-11.932137,-3.0737083
1421714730453.00,-1.8247055,-12.421769,-3.760929
1421714730454.00,-1.8034497,-13.357324,-4.898863
1421714730468.00,-1.8938617,-13.427527,-7.31903
1421714730489.00,-2.3757098,-13.790972,-5.669161
1421714730512.00,-1.2374767,-12.612772,6.4723907
1421714730529.00,-2.0784278,-13.429772,6.34276
1421714730549.00,-4.9288006,-10.691367,1.1777508
1421714730569.00,-4.844376,-10.010134,-0.37347335
1421714730589.00,-2.3478675,-10.904674,-0.65623534
1421714730608.00,0.20642075,-11.557915,-1.2596306
1421714730628.00,-0.02350113,-8.810379,-1.4397061
1421714730649.00,-0.6715036,-7.5823326,-0.91804093
1421714730668.00,-1.4659016,-7.099287,-0.42257127
1421714730688.00,-1.5880476,-6.55921,-0.41852966
1421714730751.00,-1.9806812,-5.544171,-0.85816544
1421714730752.00,-2.131268,-4.733157,-1.4260844
1421714730753.00,-2.1330643,-3.9613624,-2.3328986
1421714730772.00,-2.3059547,-2.934348,-2.7966344
1421714730790.00,-2.2104533,-2.376009,-2.7825637
1421714730809.00,-2.2915847,-2.0535796,-3.4630485
1421714730828.00,-2.5418642,-2.0913012,-4.9579897
1421714730849.00,-1.7212706,-2.8491752,-5.6959553
1421714730869.00,-0.5812413,-3.0472133,-5.5140834
1421714730889.00,0.25536895,-3.5414855,-5.6477556
1421714730909.00,0.39697447,-4.156407,-5.892197
1421714730929.00,-0.429906,-4.0920405,-6.418503
1421714730949.00,-0.99498093,-4.921915,-8.715476
1421714730968.00,-1.3879138,-6.8892736,-11.057356
1421714730988.00,-1.8637743,-7.6351724,-11.543245
1421714731009.00,-2.0914507,-8.873997,-8.492141
1421714731076.00,-2.3625371,-8.436307,-5.0214577
1421714731077.00,-4.3593845,-5.1897078,-3.2250435
1421714731079.00,-3.1548395,-6.60741,-7.0961437
1421714731089.00,-2.0342698,-8.418942,-6.1830425
1421714731108.00,-3.841312,-9.492809,-5.0296907
1421714731129.00,-3.9562728,-10.139764,-5.377268
1421714731150.00,-3.6339931,-10.080936,-4.233197
1421714731168.00,-3.0181737,-9.538465,-2.5451574
1421714731189.00,-2.7334657,-8.999136,-1.8368303
1421714731209.00,-2.3599923,-9.428294,-1.4739848
1421714731229.00,-1.8242564,-10.054741,-1.1238629
1421714731249.00,-1.0750644,-10.629546,-0.24069947
1421714731268.00,-0.17199235,-11.263477,0.12798385
1421714731288.00,0.11750565,-11.800112,0.03173401
1421714731309.00,0.4445755,-10.964549,0.44502458
1421714731328.00,0.52765274,-10.354568,-0.19220032
1421714731414.00,0.2402504,-9.905202,-0.21031265
1421714731415.00,-0.28186387,-9.541308,-0.29533586
1421714731417.00,-0.4008664,-8.810229,-0.5041516
1421714731417.00,-0.27961853,-8.5357,-1.0981164
1421714731429.00,0.28994706,-8.834928,-1.1855347
1421714731448.00,1.0523117,-9.050629,-0.7006929
1421714731468.00,1.4139596,-9.091495,-0.9595047
1421714731490.00,0.11511063,-8.826096,-1.6507672
1421714731508.00,-1.1268567,-9.405092,-2.2378464
1421714731529.00,-1.7955163,-9.010213,-1.4028827
1421714731548.00,-1.8841319,-8.735385,-1.0026151
1421714731568.00,-1.8498532,-9.234596,-1.0871892
1421714731588.00,-1.6655864,-9.424103,-1.1135345
1421714731609.00,-0.41733214,-9.639055,-2.19279
1421714731628.00,1.1153307,-8.993149,-1.7889299
1421714731648.00,1.5893948,-8.282427,-1.0262659
1421714731668.00,0.9584569,-8.589888,-0.6981482
1421714731689.00,-0.25671616,-9.548643,-0.07304809
1421714731741.00,-0.7158115,-11.278596,1.0270143
1421714731742.00,-1.0627899,-12.327914,1.8488054
1421714731748.00,-1.9478993,-12.875924,1.3395643
1421714731768.00,-3.077151,-13.547278,0.97432387
1421714731790.00,-2.9045599,-14.945221,0.7250922
1421714731810.00,-3.1150222,-14.822626,-0.049996033
1421714731829.00,-3.3775764,-14.253659,-1.9022442
1421714731849.00,-3.8556821,-14.184504,-3.4346077
1421714731868.00,-3.558101,-13.596227,-4.219276
1421714731889.00,-2.3321502,-12.8503275,-4.4583287
1421714731909.00,-1.5736775,-12.740755,-6.7286577
1421714731929.00,-1.4434483,-13.174254,-6.938072
1421714731948.00,-0.34143996,-14.508879,-0.16316071
1421714731973.00,-1.0165361,-15.336059,3.15454
1421714731993.00,-3.8785844,-12.214899,1.7618363
1421714732011.00,-5.3890934,-10.837314,0.76820254
1421714732033.00,-4.4053392,-10.556647,-1.1954141
1421714732109.00,-1.314716,-11.539204,-0.42137375
1421714732110.00,1.5617024,-11.210787,-1.2910652
1421714732112.00,1.7793498,-8.3024845,-0.49008086
1421714732116.00,0.47825545,-6.572233,-0.3915857
1421714732129.00,-0.7009923,-5.942642,-0.09056167
1421714732149.00,-1.379681,-5.776488,0.016316071
1421714732168.00,-2.3879843,-5.1055827,-1.0413845
1421714732191.00,-2.797233,-3.8594244,-2.115401
1421714732209.00,-3.460953,-2.341431,-2.36598
1421714732228.00,-3.7482057,-1.6007712,-2.7393036
1421714732249.00,-3.3223412,-1.4218931,-2.8129504
1421714732273.00,-2.6403594,-1.4952407,-3.4313145
1421714732293.00,-2.5488997,-1.6359481,-5.4673805
1421714732311.00,-2.6045837,-1.8854791,-5.572462
1421714732421.00,-1.733096,-2.3641837,-4.98688
1421714732422.00,-0.08951385,-3.0811927,-5.364245
1421714732422.00,0.6089337,-3.7015028,-5.9179435
1421714732423.00,-0.27692413,-3.5009198,-7.086264
1421714732429.00,-1.3299843,-2.9912298,-11.964021
1421714732430.00,-2.6301806,-6.4285316,-16.520695
1421714732477.00,-5.0019984,-11.684402,-8.240664
1421714732478.00,-3.629203,-11.100317,-2.8524683
1421714732535.00,-6.239325,-5.536387,-5.59252
1421714732536.00,-2.517016,-5.8823175,-5.8698936
1421714732537.00,-3.557502,-8.462203,-4.9118857
1421714732552.00,-5.217999,-11.055261,-4.5846663
1421714732568.00,-4.113446,-11.41137,-4.723428
1421714732589.00,-2.8889923,-10.184521,-3.6574943
1421714732609.00,-2.5180635,-8.875343,-2.5173151
1421714732629.00,-2.84678,-8.135582,-2.2900877
1421714732649.00,-2.9135413,-8.344697,-1.5028747
1421714732670.00,-1.6296611,-9.171428,-0.6261479
1421714732744.00,0.07738907,-10.431956,0.6372249
1421714732745.00,1.2596306,-11.527229,1.0428814
1421714732746.00,1.6697776,-12.021352,0.6047424
1421714732753.00,1.6979191,-10.895094,-0.006137237
1421714732769.00,0.8026309,-9.874965,-1.1204201
1421714732789.00,0.23935227,-9.114098,-0.18950592
1421714732808.00,-0.24414231,-9.069939,-0.19743942
1421714732829.00,-0.40850052,-8.711734,-0.96040285
1421714732849.00,-0.39727387,-8.042925,-0.45295808
1421714732869.00,-0.23546036,-7.7921963,-0.040415954
1421714732889.00,-0.19564316,-7.943232,-0.57914567
1421714732912.00,-0.39263353,-8.63165,-1.888922
1421714732944.00,-0.41388932,-9.586514,-1.9272423
1421714732948.00,-1.1096425,-9.831705,-0.7830217
1421714732968.00,-2.2968237,-9.47814,-0.68377805
1421714732991.00,-3.1976504,-9.354647,-2.0633094
1421714733010.00,-3.3751812,-9.520053,-2.2547612
1421714733072.00,-2.5331821,-9.304651,-0.92821974
1421714733073.00,-1.5892452,-9.096134,-0.066162415
1421714733074.00,-0.5373825,-9.27591,0.34158966
1421714733089.00,0.4459227,-9.547596,0.26644593
1421714733109.00,0.9596544,-9.767638,0.083376616
1421714733130.00,1.257535,-10.236014,-0.14564712
1421714733149.00,1.0835967,-10.683284,0.3849994
1421714733169.00,0.07589218,-10.688523,-0.10208771
1421714733189.00,-0.9457333,-11.121273,-0.9565109
1421714733210.00,-0.86834425,-14.009217,-1.1410772
1421714733229.00,-0.5430707,-15.851437,-0.35116974
1421714733250.00,-1.1952645,-15.162719,-1.108894
1421714733269.00,-1.6028668,-13.193115,-2.6086254
1421714733289.00,-0.83885556,-11.987522,-1.645079
1421714733309.00,-0.20357665,-12.008328,1.5667919
1421714733329.00,0.3143463,-11.904894,4.131708
1421714733395.00,0.868494,-11.538755,6.707851
1421714733396.00,0.64351183,-10.593171,6.7047076
1421714733397.00,-0.5295987,-10.820549,3.19301
1421714733409.00,-0.7114705,-10.984009,-0.8855585
1421714733429.00,-0.87522995,-10.476863,-1.9034418
1421714733449.00,-1.5750247,-10.3869,0.8171507
1421714733469.00,-1.4853612,-10.47851,5.3361034
1421714733489.00,-1.5946339,-9.145382,4.8518605
1421714733518.00,-1.085393,-8.63644,1.6136444
1421714733538.00,-1.479673,-8.303233,2.0389102
1421714733551.00,-1.9963984,-8.230784,2.689158
1421714733569.00,-2.3980134,-7.6727443,2.7680438
1421714733589.00,-2.859803,-6.9246,2.3888824
1421714733610.00,-3.4732275,-6.5797176,1.2034973
1421714733629.00,-3.6500099,-6.360124,-0.006137237
1421714733650.00,-3.6660264,-6.0155406,-0.7518864
1421714733703.00,-3.9453456,-5.891598,-1.6907341
1421714733704.00,-3.3739839,-6.6166906,-2.177971
1421714733709.00,-2.6006918,-8.406369,-2.550995
1421714733729.00,-1.4600638,-10.608889,-2.8729756
1421714733749.00,0.22782624,-12.095897,-3.016078
1421714733770.00,0.9988728,-12.085867,-4.318819
1421714733790.00,1.0819501,-11.962823,-6.663693
1421714733812.00,-0.43709105,-10.465636,-6.488557
1421714733829.00,-2.2070105,-8.725804,-2.306703
1421714733849.00,-2.9614418,-7.594607,0.1567241
1421714733868.00,-2.577939,-6.0944266,0.2640509
1421714733889.00,-2.5512946,-7.277267,0.8352631
1421714733908.00,-3.6809952,-15.613432,3.1672637
1421714733929.00,-4.5225453,-18.33118,-0.911754
1421714733950.00,-1.9237994,-12.586127,-4.841831
1421714734001.00,-3.9520817,-4.403842,4.61655
1421714734002.00,-3.6040554,-3.3197966,6.5644493
1421714734012.00,-2.785258,-5.86181,4.469256
1421714734029.00,-1.7555493,-9.560918,2.9352462
1421714734049.00,-0.60683805,-13.972095,1.4503341
1421714734069.00,1.5200889,-14.077476,-1.2903168
1421714734092.00,2.1742287,-10.995984,-4.7057643
1421714734112.00,-0.15013778,-8.839119,-2.446812
1421714734131.00,-2.256258,-8.105794,1.4585669
1421714734155.00,-3.1220577,-8.192464,3.165168
1421714734175.00,-2.6027875,-8.931327,1.6678318
1421714734194.00,-2.116748,-9.119486,-0.21659958
1421714734209.00,-2.2309606,-9.170081,-0.014519806
1421714734229.00,-2.1302202,-9.309291,1.0259665
1421714734249.00,-1.3519886,-9.490714,1.2479548
1421714734269.00,-0.83316743,-9.665251,1.1529025
1421714734425.00,-0.755479,-9.696985,0.8466394
1421714734426.00,-0.92657316,-9.850716,0.830473
1421714734427.00,-1.6048127,-9.903107,0.44128236
1421714734428.00,-2.2254221,-9.544751,-0.3954776
1421714734429.00,-2.2243743,-8.996142,-1.2196637
1421714734430.00,-0.98959213,-8.950637,-0.3608995
1421714734430.00,0.4459227,-9.6598625,1.2181668
1421714734432.00,0.9906399,-10.069111,1.8161732
1421714734449.00,-0.17304017,-10.874736,0.4155359
1421714734469.00,-2.3291564,-10.206974,-0.9014255
1421714734489.00,-1.9486477,-10.191707,-0.468376
1421714734510.00,-0.565524,-11.588751,-0.8614586
1421714734529.00,1.1177257,-13.110038,-2.5463548
1421714734549.00,2.1647983,-15.164216,-2.1640499
1421714734569.00,1.6958236,-14.973662,-0.9403446
1421714734589.00,-0.8628058,-12.967384,-2.2037172
1421714734609.00,-1.608555,-11.984379,-1.0380913
1421714734705.00,-2.122137,-13.010794,-1.1091934
1421714734707.00,-1.5790663,-12.73866,0.23725662
1421714734708.00,-0.15762222,-12.774435,3.3211436
1421714734709.00,0.5134323,-13.617033,3.6063006
1421714734710.00,0.1830693,-13.892161,0.55923706
1421714734730.00,0.46867537,-13.405374,-0.2811154
1421714734750.00,1.0774595,-14.795083,1.6964222
1421714734773.00,-0.5545967,-13.735886,0.85562074
1421714734801.00,-2.0414548,-10.820549,-0.4830455
1421714734814.00,-2.8325596,-9.24268,-0.8595126
1421714734842.00,-2.251468,-9.197623,-0.25177643
1421714734850.00,-1.6555573,-9.075028,-0.43110353
1421714734870.00,-1.8139279,-8.40607,-0.7728429
1421714734889.00,-2.0272343,-7.533983,-0.950224
1421714734909.00,-2.387086,-6.590046,-1.861978
1421714734929.00,-2.7696905,-5.205126,-2.76984
1421714734993.00,-2.8536658,-2.9641361,-2.9490175
1421714734994.00,-2.5732987,-1.4802718,-3.890859
1421714734994.00,-1.547033,-1.848955,-3.7044964
1421714735009.00,-0.21121079,-3.5365458,-3.658991
1421714735029.00,0.330363,-4.643194,-4.641997
1421714735049.00,-0.547711,-4.811594,-5.6827826
1421714735072.00,-1.7315991,-5.4155884,-7.1223392
1421714735089.00,-2.194287,-6.2839327,-8.307425
1421714735109.00,-2.07259,-7.932155,-7.846982
1421714735131.00,-2.918032,-9.717492,-5.469027
1421714735149.00,-2.3177803,-10.210118,-4.9353867
1421714735170.00,-4.2604403,-8.265062,-3.4875975
1421714735189.00,-4.740941,-8.356672,-4.781058
1421714735209.00,-4.6990285,-9.146879,-5.7040386
1421714735229.00,-4.4421625,-10.120754,-4.657265
1421714735249.00,-4.0728803,-10.312056,-3.378175
1421714735269.00,-2.628085,-9.903706,-2.8524683
1421714735334.00,-2.0085232,-9.799821,-2.066902
1421714735335.00,-1.6314573,-10.108779,-1.3245955
1421714735336.00,-0.5968089,-10.181377,-0.8147557
1421714735354.00,0.4805008,-10.167007,-0.1936972
1421714735369.00,0.6863228,-9.77138,-0.23426285
1421714735391.00,0.49067962,-9.945767,-0.357307
1421714735409.00,0.66252226,-10.06013,-0.51567763
1421714735431.00,0.48094985,-9.431587,-0.23905289
1421714735450.00,0.34338593,-9.123827,-0.726589
1421714735469.00,-0.0477507,-9.337133,-0.75562865
1421714735489.00,-0.2719844,-9.718241,-1.0600955
1421714735509.00,0.4805008,-9.623637,-0.343835
1421714735529.00,1.3458513,-9.69429,0.12049942
1421714735549.00,1.8658699,-10.018966,-0.748743
1421714735571.00,1.1765534,-9.956844,-1.6884887
1421714735589.00,-0.042960662,-9.65118,-1.2106824
1421714735609.00,-1.2820839,-9.267229,-0.7414082
1421714735677.00,-1.4000386,-9.377549,-0.45759842
1421714735678.00,-1.7765057,-9.613608,-1.253194
1421714735679.00,-2.0218456,-9.61256,-0.66401917
1421714735689.00,-2.0589683,-8.842711,0.34518218
1421714735709.00,-0.48903304,-9.041498,0.23920257
1421714735729.00,0.83661026,-9.178313,-0.6912625
1421714735749.00,0.7779323,-8.760982,-0.75622743
1421714735769.00,-0.38095778,-8.729846,-0.41388932
1421714735789.00,-1.1599379,-9.381291,-0.11511063
1421714735810.00,-1.07716,-10.032138,0.20612137
1421714735829.00,-1.1954141,-10.502011,0.8946895
1421714735849.00,-0.6569838,-11.524086,1.565295
1421714735869.00,0.12169693,-12.798086,3.181484
1421714735889.00,-0.6135741,-13.017231,2.254911
1421714735909.00,-1.9258951,-13.5080595,1.3823754
1421714735973.00,-2.6542804,-14.146183,0.23396347
1421714735974.00,-2.482737,-14.228961,-1.1749067
1421714735975.00,-2.476001,-14.084661,-2.2324576
1421714735989.00,-2.3671775,-13.510755,-3.0557456
1421714736009.00,-1.4037808,-13.593233,-3.6167789
1421714736029.00,-0.8140073,-13.128899,-5.1159115
1421714736050.00,-0.5215155,-12.854219,-8.407866
1421714736072.00,-1.4518309,-14.991325,-8.070168
1421714736089.00,-1.3971945,-15.983013,1.3138179
1421714736109.00,-2.7542725,-15.195052,6.546187
1421714736129.00,-6.615194,-10.774744,6.589447
1421714736149.00,-6.2743526,-8.894803,5.6142254
1421714736170.00,-3.238665,-10.700648,-0.43873763
1421714736189.00,1.6299605,-12.985197,-7.104526
1421714736209.00,1.7055533,-9.632619,-3.206033
1421714736229.00,-0.9927356,-7.175778,-0.11496094
1421714736251.00,-1.8196161,-6.8750534,1.1771522
1421714736330.00,-0.9134006,-6.302494,0.4631369
1421714736330.00,-0.5388794,-5.2004857,-0.6661148
1421714736331.00,-1.1352392,-3.6757562,-1.5645465
1421714736332.00,-1.9483484,-2.55354,-1.3025912
1421714736350.00,-2.874622,-1.4097683,-1.3421091
1421714736369.00,-3.3293765,-0.7259903,-2.1691391
1421714736389.00,-2.7399023,-0.93061477,-4.611311
1421714736412.00,-2.1805155,-1.7515078,-6.0646386
1421714736429.00,-0.7551796,-2.464625,-4.7184877
1421714736449.00,0.70548296,-2.8816576,-4.2915754
1421714736469.00,0.98510146,-3.5982175,-6.4182034
1421714736490.00,1.2379258,-5.450915,-13.703403
1421714736509.00,0.03876938,-6.855294,-11.618838
1421714736529.00,-4.971462,-9.053773,-5.479356
1421714736549.00,-4.6863046,-10.700199,-3.7425175
1421714736569.00,-4.9755034,-8.073312,-6.2277994
1421714736589.00,-3.2506402,-7.6929526,-5.4254675
1421714736653.00,-3.7256026,-8.667127,-4.595294
1421714736654.00,-4.8177314,-10.243798,-4.095184
1421714736655.00,-3.8378692,-10.620864,-3.778293
1421714736669.00,-2.7613077,-10.326576,-2.8442354
1421714736689.00,-2.49576,-9.79084,-1.812431
1421714736709.00,-2.2709277,-9.621392,-1.278192
1421714736731.00,-1.6170872,-9.904154,-0.669857
1421714736751.00,-0.31299913,-10.201137,0.3915857
1421714736769.00,0.909359,-10.514435,0.69216067
1421714736789.00,1.4850618,-10.711426,0.27557695
1421714736809.00,1.8649718,-11.020832,0.20941453
1421714736829.00,1.42339,-10.585088,-0.02454895
1421714736850.00,0.8490344,-9.426497,-0.44667113
1421714736869.00,0.4125421,-8.804391,-0.37467086
1421714736889.00,-0.07274872,-8.980425,-1.4413527
1421714736909.00,0.22183868,-9.156159,-0.44113266
1421714736977.00,0.9466315,-9.741742,0.4514612
1421714736978.00,0.6397696,-9.640403,-1.2961546
1421714736979.00,-0.14160553,-8.893307,-2.2156925
1421714736992.00,-1.1280541,-9.299262,-2.4439678
1421714737009.00,-1.3474978,-9.305249,-1.1008109
1421714737029.00,-2.2902374,-8.725954,-0.7966434
1421714737049.00,-2.6267376,-8.7897215,-1.103655
1421714737069.00,-1.4329702,-9.319171,-0.34338593
1421714737089.00,0.37107834,-9.337133,0.40685394
1421714737109.00,1.7780026,-9.355994,-1.9473006
1421714737129.00,1.7202228,-9.237291,-1.9752923
1421714737153.00,0.17124389,-9.051527,-0.49397278
1421714737169.00,-0.47855484,-10.3689375,0.6724017
1421714737189.00,-0.38455033,-12.139156,1.5067667
1421714737209.00,-0.27378067,-12.640464,1.0286609
1421714737281.00,-1.4395565,-12.191098,0.68587375
1421714737286.00,-2.272724,-13.040731,1.923051
1421714737287.00,-3.0609846,-14.180312,1.2784914
1421714737288.00,-3.045866,-13.900245,-0.28605515
1421714737310.00,-2.8340566,-13.432318,-0.8909473
1421714737329.00,-2.8163934,-12.882361,-0.9996213
1421714737349.00,-2.7710376,-12.128379,-1.3924044
1421714737369.00,-2.3020627,-12.365336,-2.2378464
1421714737394.00,-1.5790663,-12.503499,-4.236191
1421714737409.00,-1.027164,-12.173136,-7.046447
1421714737429.00,-1.1838881,-13.04163,-7.803572
1421714737450.00,-1.4539266,-13.501623,-2.513124
1421714737469.00,-2.009122,-13.519885,5.3639455
1421714737489.00,-6.386619,-10.618917,3.7501516
1421714737510.00,-7.208111,-8.934919,2.397265
1421714737529.00,-5.1439033,-9.587712,1.0547067
1421714737549.00,0.06197113,-12.693304,-3.0778995
1421714737620.00,2.0727396,-10.793755,-4.3045983
1421714737620.00,0.28979737,-8.506361,-1.9422112
1421714737621.00,-1.0999128,-7.8761716,-1.1044034
1421714737632.00,-1.2496015,-7.018455,-0.26464966
1421714737649.00,-0.9301657,-6.1623855,-0.9976753
1421714737669.00,-1.2028985,-4.716991,-1.819167
1421714737689.00,-2.3119423,-3.3006363,-2.3555017
1421714737709.00,-3.2630644,-1.8139279,-2.347718
1421714737729.00,-2.7925928,-0.8955876,-2.1049228
1421714737750.00,-2.1429436,-0.59890455,-3.5480719
1421714737771.00,-1.8303937,-0.8789722,-5.263205
1421714737789.00,-1.4088702,-1.2816348,-5.0407677
1421714737809.00,-0.052091673,-1.919159,-4.96742
1421714737829.00,1.5007792,-3.117118,-5.194049
1421714737849.00,0.9134006,-3.8034408,-6.7927246
1421714737869.00,0.27662477,-5.6523957,-13.768968
1421714737956.00,-3.1958542,-8.6015625,-10.922337
1421714737959.00,-5.470374,-10.318193,-8.454569
1421714737961.00,-4.267775,-9.587263,-3.7356317
1421714737962.00,-4.55383,-5.4640875,-5.3437376
1421714737969.00,-2.176923,-6.36222,-5.4033136
1421714737989.00,-3.3970358,-8.621022,-5.041666
1421714738009.00,-4.003874,-11.653117,-4.3743534
1421714738032.00,-3.131039,-11.816727,-4.311185
1421714738050.00,-2.4745042,-10.4428835,-3.3902998
1421714738071.00,-2.5975485,-9.232351,-2.0704944
1421714738090.00,-2.5945547,-8.771909,-1.5325131
1421714738110.00,-2.1647983,-9.205707,-0.9630972
1421714738130.00,-0.96579164,-10.04097,0.064815216
1421714738149.00,0.1565744,-10.653196,0.4394861
1421714738169.00,0.3570076,-11.393856,0.24833359
1421714738192.00,1.0347981,-11.176807,0.9479787
1421714738267.00,1.2240046,-10.129436,0.09220825
1421714738268.00,0.5474117,-8.976084,-0.62165725
1421714738269.00,0.086969145,-8.768765,-0.31299913
1421714738270.00,0.4432283,-9.304202,-0.60743684
1421714738291.00,0.96040285,-9.451944,-1.1549982
1421714738309.00,1.5819104,-9.411978,-0.6478528
1421714738329.00,1.2566369,-9.563014,-1.0177336
1421714738349.00,0.5093907,-9.248518,-1.6828007
1421714738369.00,-0.7450008,-9.48293,-1.991309
1421714738389.00,-1.1355386,-9.971214,-1.6584014
1421714738409.00,-1.5072157,-9.36258,-1.4171032
1421714738429.00,-2.1712348,-8.796009,-1.2789404
1421714738450.00,-1.5328125,-8.626711,-0.97567105
1421714738469.00,0.35311568,-9.072783,0.14968872
1421714738489.00,1.6233742,-8.278685,-0.14504836
1421714738511.00,1.7796493,-8.604108,-2.0454965
1421714738530.00,1.1365864,-9.282946,-2.5417144
1421714738580.00,-0.23830444,-10.102941,-0.27348128
1421714738581.00,-1.5637981,-11.269016,1.0060579
1421714738590.00,-1.1720626,-12.703333,2.5227041
1421714738610.00,-1.0340496,-12.802876,1.8763481
1421714738630.00,-1.6105009,-12.253967,1.4750327
1421714738649.00,-2.833907,-13.189971,2.070195
1421714738669.00,-2.699187,-14.28704,0.4978647
1421714738693.00,-2.1915925,-14.241235,-1.0764116
1421714738711.00,-2.5950036,-14.050083,-1.5325131
1421714738730.00,-2.2168899,-13.529316,-2.562671
1421714738749.00,-1.7247134,-13.51255,-4.2869353
1421714738770.00,-1.332978,-13.761034,-5.929769
1421714738789.00,-0.94528425,-13.130844,-7.8040214
1421714738811.00,-1.4271322,-13.78678,-7.9602966
1421714738829.00,-1.4353652,-13.555661,1.723965
1421714738850.00,-2.600542,-14.7037735,6.690038
1421714738921.00,-6.650969,-10.968591,4.557273
1421714738922.00,-6.4345193,-8.478818,2.5259972
1421714738927.00,-0.9689351,-11.444152,-1.2957056
1421714738930.00,3.7592826,-14.168487,-5.267097
1421714738950.00,2.6008415,-9.537267,-0.6047424
1421714738969.00,-0.32078293,-7.5625734,-0.13352233
1421714738989.00,-1.3346246,-7.1178484,0.99108905
1421714739010.00,-1.0527607,-6.314469,0.26854157
1421714739029.00,-0.93375826,-4.5165577,-0.5641768
1421714739050.00,-1.4724879,-2.9813502,-0.85906357
1421714739070.00,-2.2728736,-1.4682966,-1.2391232
1421714739094.00,-2.579885,-0.007783813,-1.9220031
1421714739118.00,-3.0476623,-0.026045837,-3.7509
1421714739131.00,-2.700235,-0.89992857,-5.1741405
1421714739150.00,-1.5664924,-1.7405804,-4.6199927
1421714739170.00,0.15971786,-2.2162912,-4.149072
1421714739228.00,1.723516,-2.6828709,-6.877149
1421714739230.00,2.2417383,-6.4325733,-14.360986
1421714739232.00,-0.99557966,-7.9715233,-9.481133
1421714739250.00,-2.9505143,-11.1160345,-6.62178
1421714739269.00,-7.081175,-10.499017,-0.984353
1421714739290.00,-3.1253507,-8.345146,-6.3921576
1421714739309.00,-1.1392808,-8.286169,-5.503156
1421714739330.00,-2.9945228,-9.355246,-3.6564465
1421714739349.00,-3.9948926,-10.519375,-3.5908828
1421714739369.00,-3.2552805,-10.765912,-3.8359232
1421714739390.00,-2.7390041,-10.450218,-3.4081128
1421714739409.00,-2.4700136,-9.743688,-2.6394613
1421714739429.00,-1.9722986,-9.298513,-1.5920892
1421714739450.00,-0.9289682,-9.585018,-0.29353958
1421714739470.00,0.0981958,-9.773176,0.6340814
1421714739490.00,0.50265473,-10.392589,0.79140425
1421714739510.00,0.93615323,-10.896291,0.054337006
1421714739577.00,1.79851,-10.919493,-0.432301
1421714739578.00,1.3977933,-10.155481,-0.8571176
1421714739580.00,0.6512956,-9.567504,-0.5278024
1421714739589.00,0.7009923,-9.348809,0.001796265
1421714739609.00,0.30611342,-8.747958,-0.721799
1421714739629.00,0.7021898,-8.933273,-0.70009416
1421714739649.00,0.66701293,-9.802067,-1.2292438
1421714739673.00,0.26614654,-9.47799,-1.6750168
1421714739700.00,-0.53393966,-9.568552,-1.403182
1421714739710.00,-1.6322058,-9.259745,-1.6194823
1421714739733.00,-1.9520906,-9.142838,-1.0590477
1421714739751.00,-1.6771125,-9.060509,-0.95890594
1421714739769.00,-1.5262262,-9.264983,-0.2549199
1421714739789.00,-0.3104544,-8.757239,0.24414231
1421714739810.00,1.3127701,-8.653056,-1.0684781
1421714739829.00,1.8878741,-8.88672,-1.3298346
1421714739850.00,0.48858398,-8.602461,-0.28785142
1421714739924.00,-0.70144135,-9.7603035,0.17124389
1421714739926.00,-1.0533595,-11.19013,1.016087
1421714739929.00,-0.9523196,-13.314512,1.8035994
1421714739930.00,-0.7604187,-14.065052,1.1246114
1421714739951.00,-2.7957363,-15.404616,2.255809
1421714739969.00,-4.6875024,-15.839162,1.6799566
1421714739990.00,-4.20296,-14.317726,-0.36434233
1421714740010.00,-3.2245944,-12.581187,-1.33687
1421714740030.00,-2.4050486,-12.121044,-2.147584
1421714740050.00,-1.7164806,-12.760215,-2.1230352
1421714740070.00,-1.2205619,-13.086087,-2.4830365
1421714740090.00,-1.4186,-12.950319,-4.299958
1421714740111.00,-0.78721297,-12.929064,-7.8788657
1421714740131.00,-0.09624985,-12.34887,-6.8979554
1421714740150.00,0.2856061,-13.107044,2.7042763
1421714740170.00,-4.1420364,-11.267369,4.603078
1421714740239.00,-5.586832,-8.694071,3.2260914
1421714740240.00,-1.9103274,-9.263487,0.7773335
1421714740241.00,2.0561242,-12.314292,-0.83810717
1421714740249.00,1.8639239,-9.686208,-2.1309686
1421714740270.00,0.66132474,-8.026608,-1.5485299
1421714740290.00,-0.97656924,-7.386839,-0.7607181
1421714740309.00,-1.8910176,-7.3904314,-0.87373304
1421714740330.00,-2.227368,-6.6964746,-2.0353174
1421714740349.00,-1.99086,-6.0579023,-2.1932392
1421714740369.00,-2.4722588,-4.936285,-2.5641677
1421714740390.00,-2.9835956,-3.305576,-2.5414152
1421714740410.00,-2.5149202,-2.4349864,-2.4349864
1421714740430.00,-1.640289,-2.3059547,-2.5292902
1421714740449.00,-1.6762143,-1.402733,-3.6708164
1421714740470.00,-2.1929398,-0.9171428,-4.839287
1421714740536.00,-1.5507752,-1.8480569,-4.955595
1421714740538.00,-0.6442602,-2.371668,-5.103487
1421714740540.00,0.1778302,-2.6622138,-5.516329
1421714740549.00,0.420775,-2.6728418,-6.7966166
1421714740569.00,-0.6725514,-3.8790336,-13.720319
1421714740590.00,-1.8562899,-8.360115,-13.795313
1421714740609.00,-2.5762925,-11.234737,-9.54565
1421714740630.00,-4.9566426,-10.904674,-1.045426
1421714740650.00,-4.882696,-7.8570113,-6.3391676
1421714740673.00,-1.9239491,-6.780899,-6.3767395
1421714740689.00,-3.6607873,-8.576415,-4.410728
1421714740709.00,-5.0705557,-10.851833,-4.4039917
1421714740729.00,-3.956123,-10.701396,-4.733157
1421714740750.00,-3.1365774,-9.66555,-3.8329294
1421714740771.00,-3.2808774,-8.444539,-2.8018734
1421714740790.00,-3.1802866,-8.161927,-2.3050566
1421714740850.00,-2.25536,-8.672964,-1.4835649
1421714740850.00,-1.1979588,-8.927884,-1.1035053
1421714740851.00,-0.2802173,-9.234447,-0.508792
1421714740869.00,0.45295808,-9.517359,-0.20657043
1421714740889.00,0.8702902,-9.709708,0.27258316
1421714740921.00,1.1099418,-10.3247795,-0.3264711
1421714740930.00,0.9571097,-9.951306,-0.680934
1421714740949.00,0.25252488,-9.882,-0.3381468
1421714740969.00,0.2535727,-10.272688,0.88436097
1421714740991.00,0.007484436,-9.993219,0.7893086
1421714741010.00,0.42122406,-9.24747,0.61776537
1421714741030.00,0.8201445,-8.354576,0.101638645
1421714741050.00,0.31255004,-8.433762,-0.5724097
1421714741069.00,-0.2585124,-9.17502,-0.87133807
1421714741090.00,-0.66791105,-9.936936,-0.5908214
1421714741110.00,-1.1654763,-9.662257,-0.58872575
1421714741130.00,-1.5045214,-9.250613,-0.7370673
1421714741461.00,-1.0813513,-8.790021,-0.71162015
1421714741462.00,-0.42167312,-8.938362,-0.16001724
1421714741463.00,-0.03876938,-9.001532,0.18785934
1421714741464.00,-0.04580475,-9.57439,0.21854553
1421714741465.00,-0.30356872,-9.745035,0.47975236
1421714741466.00,-0.16555573,-9.328601,0.23546036
1421714741468.00,0.08068222,-9.413624,0.32452515
1421714741469.00,0.6192622,-9.936487,0.1965413
1421714741470.00,0.41733214,-10.038425,0.6369255
1421714741471.00,-0.33455428,-10.356364,1.1799961
1421714741472.00,-1.864373,-10.433304,-1.0502161
1421714741473.00,-1.7781523,-10.75708,-3.7378771
1421714741473.00,-0.0477507,-11.671828,-2.4773483
1421714741475.00,0.1936972,-12.633279,-0.6117778
1421714741490.00,-2.1046233,-10.504556,-3.1939082
1421714741513.00,-2.5822802,-10.5394335,-2.2132974
1421714741567.00,-1.9844234,-10.433454,1.6139438
1421714741568.00,-0.8358618,-10.826985,3.7621267
1421714741569.00,0.9412427,-11.728111,2.9744647
1421714741589.00,1.6040643,-12.38764,1.7823436
1421714741610.00,0.5745053,-12.122092,1.1144326
1421714741630.00,0.15013778,-11.137889,1.9035915
1421714741654.00,-0.6225554,-10.288256,0.45325744
1421714741669.00,-1.9541862,-9.356144,1.6988173
1421714741690.00,-2.5459058,-8.629555,1.6627423
1421714741710.00,-2.543361,-7.2365513,1.6284636
1421714741730.00,-2.0628603,-6.597081,1.5135026
1421714741750.00,-2.2029688,-6.507268,0.9927356
1421714741773.00,-2.5821304,-6.0770626,1.6619939
1421714741846.00,-2.5629702,-5.312902,1.8273998
1421714741848.00,-2.3132894,-4.277505,1.4596148
1421714741849.00,-2.199975,-4.2941203,-0.084574126
1421714741850.00,-2.3114932,-4.381838,-1.1279045
1421714741869.00,-2.2182372,-5.564828,-1.9423609
1421714741891.00,-1.3953983,-9.342821,-4.5171566
1421714741910.00,1.9993923,-16.612604,-8.926388
1421714741930.00,4.186045,-18.647472,-9.710157
1421714741953.00,2.5764422,-14.433885,-7.963889
1421714741971.00,-1.1394305,-10.231673,-5.8381596
1421714741990.00,-4.289031,-8.555758,-2.7271788
1421714742010.00,-4.527934,-5.7205043,0.49322432
1421714742030.00,-3.0184731,-6.1830425,1.4078224
1421714742050.00,-1.9324814,-12.216845,1.9399658
1421714742070.00,-3.7684135,-16.326698,-0.9440868
1421714742090.00,-2.8270211,-12.025244,-2.1540208
1421714742110.00,-1.9520906,-5.960904,3.9969883
1421714742130.00,-2.4593856,-5.4881873,5.697452
1421714742215.00,-1.9892135,-6.980434,5.9133034
1421714742216.00,-1.1102413,-10.028096,5.1669555
1421714742217.00,-0.1751358,-12.626094,2.7536738
1421714742218.00,1.5362554,-12.951367,-0.78721297
1421714742233.00,2.1962328,-10.150093,-3.0084438
1421714742250.00,0.5054988,-9.108109,-2.857408
1421714742270.00,-1.6245717,-8.86292,-0.5400769
1421714742290.00,-1.7887802,-9.270971,1.5690372
1421714742310.00,-0.7598199,-9.389974,1.8291962
1421714742329.00,-0.9846524,-9.284293,0.30416748
1421714742350.00,-1.8473085,-9.143886,-0.434247
1421714742370.00,-2.4662714,-8.811726,-0.41239244
1421714742390.00,-2.3674767,-8.96381,-0.07993378
1421714742410.00,-1.796564,-9.129964,0.061671752
1421714742433.00,-1.0388397,-9.452992,0.29892838
1421714742450.00,-0.66716266,-9.513467,0.60429335
1421714742502.00,-0.07095245,-9.907746,0.63617706
1421714742502.00,-0.27078688,-10.007739,0.14699432
1421714742512.00,-0.7774832,-9.879905,-0.8183482
1421714742530.00,-0.96130097,-9.890233,-1.3895603
1421714742550.00,-0.20477417,-9.662407,-0.3835025
1421714742571.00,0.26225463,-9.681567,0.520318
1421714742590.00,0.068108365,-10.227482,0.7212002
1421714742611.00,0.13980927,-10.866503,0.6971004
1421714742633.00,0.87552935,-11.1215725,1.0753638
1421714742649.00,1.9341279,-12.65693,1.3522879
1421714742670.00,2.3540049,-13.93587,0.93660235
1421714742690.00,0.8674461,-14.438525,-1.8917661
1421714742711.00,-0.5388794,-13.219759,-4.2662783
1421714742732.00,-0.6173163,-11.875405,-2.6652076
1421714742752.00,-0.24563919,-11.395054,0.14968872
1421714742770.00,0.3080594,-11.039693,3.5100508
1421714742837.00,1.2534933,-11.6104555,5.599855
1421714742838.00,1.219065,-11.665242,3.9381607
1421714742839.00,0.8321196,-11.903696,1.4066249
1421714742850.00,0.8080197,-11.898906,-0.55579424
1421714742870.00,-0.55938673,-10.913506,0.18875748
1421714742890.00,-2.171684,-10.277927,1.3879138
1421714742910.00,-1.9496956,-10.619217,5.5573435
1421714742930.00,-1.4985337,-9.437275,1.9874171
1421714742951.00,-1.1198213,-8.525222,0.63902116
1421714742970.00,-1.5869998,-8.191715,1.7187259
1421714742990.00,-1.8444644,-7.9668827,2.3523583
1421714743010.00,-1.8282981,-7.9010196,2.0892055
1421714743030.00,-2.420317,-7.4660244,1.974993
1421714743054.00,-3.1744487,-7.249724,1.332978
1421714743070.00,-3.5009198,-6.7612896,0.084723815
1421714743094.00,-3.342549,-6.3474007,-1.0080038
1421714743145.00,-3.6932697,-6.254743,-1.5853533
1421714743146.00,-3.1362782,-6.7047076,-1.8498532
1421714743155.00,-2.120191,-7.7192974,-2.3213727
1421714743170.00,-0.87238586,-9.057964,-2.6948462
1421714743190.00,0.87088895,-10.611134,-3.3415012
1421714743211.00,2.6033862,-12.852424,-4.925208
1421714743233.00,3.2811768,-13.794265,-8.930429
1421714743256.00,1.674418,-11.574381,-7.3798037
1421714743272.00,-0.02350113,-8.745863,-2.941533
1421714743297.00,-0.68467623,-7.995773,-0.85277665
1421714743313.00,-0.31629226,-7.686516,-1.1737093
1421714743332.00,-0.11690689,-10.078841,1.1355386
1421714743350.00,-2.9298573,-16.834143,1.3230987
1421714743372.00,-2.9416828,-18.966759,-5.8245378
1421714743391.00,-2.9017158,-5.4531603,3.7139268
1421714743410.00,-4.3980045,-1.488804,4.004323
1421714743461.00,-5.382357,-2.222578,3.4528697
1421714743462.00,-4.8475194,-5.0837283,2.9081526
1421714743471.00,-3.319497,-10.024055,3.87589
1421714743490.00,-0.34563124,-17.073944,4.512965
1421714743510.00,4.864584,-16.350948,-2.8945308
1421714743533.00,5.9377027,-10.829829,-6.644982
1421714743550.00,3.0389805,-9.664951,-0.8903485
1421714743571.00,0.6816824,-9.267977,1.9803817
1421714743593.00,-1.7169297,-8.956326,0.41942778
1421714743615.00,-3.30857,-8.849896,-0.4285588
1421714743630.00,-2.4995022,-9.638906,-0.012573852
1421714743650.00,-0.8547226,-9.772129,-0.61402315
1421714743670.00,-0.07978409,-10.105186,0.051193543
1421714743690.00,-0.37018022,-10.301128,0.67764086
1421714743710.00,-1.2766951,-9.928254,0.11511063
1421714743732.00,-2.2272184,-9.390123,-0.39996827
1421714743811.00,-1.7143849,-9.586964,-0.34862503
1421714743812.00,-1.6862434,-9.548344,-0.14549744
1421714743813.00,-1.5362554,-9.6356125,-0.36928207
1421714743814.00,-1.1406281,-9.513617,0.09894425
1421714743830.00,-1.0556048,-9.088799,-0.4098477
1421714743850.00,-0.43170226,-9.632769,-0.6584807
1421714743870.00,-0.3582051,-9.388776,-0.6568341
1421714743890.00,-0.366438,-9.379496,-0.3902385
1421714743910.00,-0.39083725,-8.945847,-0.7560777
1421714743930.00,-0.56911653,-8.970097,-0.51148635
1421714743950.00,-0.7623646,-9.208101,0.3465294
1421714743970.00,-1.0078541,-9.667197,0.5902226
1421714743990.00,-1.1925701,-9.624835,0.8150551
1421714744011.00,-1.0487192,-9.322015,1.2530442
1421714744030.00,-0.4349954,-9.158256,1.3236973
1421714744050.00,-0.03772156,-9.753717,1.0807526
1421714744071.00,-0.16795075,-10.532846,1.3650115
1421714744125.00,-0.42706192,-10.720407,1.9263442
1421714744129.00,-0.80397815,-10.917697,1.5076648
1421714744130.00,-1.0002201,-11.157049,1.1958632
1421714744150.00,-1.1304492,-11.061547,0.8123607
1421714744170.00,-0.8508307,-11.915522,0.4564009
1421714744190.00,-0.23261628,-13.457315,-0.321232
1421714744210.00,0.37736526,-14.16205,-0.5626799
1421714744230.00,-0.1419049,-13.956826,-1.093476
1421714744251.00,-0.69635195,-13.260624,-1.1668236
1421714744274.00,-1.1758049,-12.349319,-1.041085
1421714744290.00,-0.9473799,-11.608211,-1.3093272
1421714744310.00,-0.34069154,-11.19492,-1.468596
1421714744330.00,0.5040019,-10.706186,-1.729204
1421714744350.00,1.0440788,-11.448493,-1.9200572
1421714744372.00,0.4376898,-12.510235,-1.0568024
1421714744391.00,-0.68946624,-14.638209,1.4795233
1421714744472.00,-2.3089485,-15.072456,4.5185037
1421714744473.00,-2.8340566,-12.995825,4.261189
1421714744475.00,-4.1683817,-11.58441,0.66506696
1421714744476.00,-5.15498,-12.456047,-2.3391857
1421714744491.00,-5.72724,-11.952045,-3.5021174
1421714744510.00,-4.437522,-12.2521715,-0.36793488
1421714744530.00,2.2507195,-16.17716,2.6831703
1421714744550.00,0.6578819,-10.095007,-2.4080424
1421714744570.00,-0.086220704,-8.860674,-0.37586838
1421714744591.00,-0.16226257,-9.111103,1.8971548
1421714744610.00,0.006885681,-8.521929,1.9399658
1421714744631.00,0.45490402,-8.313113,1.3150154
1421714744650.00,-0.3632945,-7.0961437,1.5334113
1421714744670.00,-1.5594571,-4.777765,0.8027806
1421714744690.00,-2.4108865,-2.5417144,-0.5375322
1421714744710.00,-3.1621742,-0.3861969,-1.3379178
1421714744730.00,-3.1647189,0.5974077,-2.872377
1421714744812.00,-2.5984466,-0.5125342,-3.810476
1421714744813.00,-1.7685722,-1.773063,-3.4143996
1421714744814.00,-0.8801697,-3.4663417,-3.0440698
1421714744815.00,0.00119751,-5.6760464,-3.1799872
1421714744832.00,0.8038284,-6.839876,-4.937632
1421714744850.00,0.89543796,-6.6310606,-8.142318
1421714744870.00,-0.6550378,-6.9009495,-11.079061
1421714744890.00,-2.376907,-10.670561,-11.034753
1421714744910.00,-1.6389418,-12.767849,-5.573061
1421714744930.00,-4.233646,-10.427466,-2.4525
1421714744950.00,-4.229754,-7.7255845,-5.68892
1421714744970.00,-2.9219239,-8.007149,-4.941524
1421714744992.00,-4.3397756,-9.960587,-3.9914498
1421714745011.00,-4.0061193,-11.192076,-4.2417293
1421714745030.00,-3.0005105,-11.185939,-3.0371842
1421714745050.00,-2.187551,-9.870923,-2.026486
1421714745136.00,-2.0342698,-8.691376,-1.5867004
1421714745137.00,-1.9053878,-8.287516,-1.4524297
1421714745138.00,-1.3956976,-8.34814,-0.8409512
1421714745140.00,-0.65264285,-8.841963,-0.13187577
1421714745152.00,-0.20252883,-9.964778,0.28096572
1421714745170.00,0.68961596,-11.071576,0.70114195
1421714745190.00,1.5188915,-11.038345,-0.14624588
1421714745210.00,1.2979509,-9.491163,-0.8481363
1421714745230.00,0.6186635,-8.602161,-0.1273851
1421714745250.00,0.25506958,-8.619676,0.03607498
1421714745271.00,0.8111632,-9.475446,-0.4219725
1421714745290.00,1.3334271,-9.517808,-0.70518357
1421714745312.00,1.219514,-9.764495,-0.9023236
1421714745330.00,0.6331833,-10.636881,-0.87687653
1421714745350.00,-0.89873105,-10.063124,-1.647474
1421714745370.00,-1.6934285,-9.559272,-1.5759228
1421714745422.00,-1.2759466,-9.922267,-1.1472144
1421714745422.00,-0.6709049,-9.996363,-0.2136058
1421714745431.00,-1.1099418,-9.544901,0.001796265
1421714745451.00,-1.29361,-8.893755,-0.12798385
1421714745474.00,-1.0782079,-8.429122,0.459245
1421714745490.00,-0.3198848,-8.901988,-0.004340973
1421714745511.00,0.07469467,-9.100176,-0.2933899
1421714745530.00,-0.0676593,-8.904533,-0.41643402
1421714745550.00,-0.32302827,-8.876691,-0.8545729
1421714745571.00,-0.12678635,-9.46362,-1.0609937
1421714745590.00,0.070503384,-9.530531,-0.298629
1421714745611.00,0.12783417,-9.587263,0.49352372
1421714745631.00,-0.048798524,-10.347233,1.2981006
1421714745650.00,0.7152127,-11.501483,2.5415647
1421714745671.00,0.9330098,-12.181369,1.7871337
1421714745737.00,-0.7405101,-12.550651,0.61761564
1421714745738.00,-2.756817,-13.480517,1.4786252
1421714745740.00,-3.6673737,-14.603782,2.1758752
1421714745751.00,-3.7139268,-14.374309,0.9448352
1421714745778.00,-3.6016603,-14.125076,-0.36838394
1421714745792.00,-2.74095,-13.295502,-1.8205142
1421714745811.00,-1.821113,-12.126882,-2.6851163
1421714745830.00,-1.3060341,-12.229718,-3.3693435
1421714745850.00,-0.6655161,-12.533287,-4.869075
1421714745871.00,0.8044272,-13.745616,-8.6315
1421714745890.00,2.090852,-14.431041,-8.231532
1421714745910.00,2.0224442,-12.054283,4.99646
1421714745931.00,-1.8399738,-12.294534,5.978867
1421714745950.00,-5.1359696,-9.420959,3.2615676
1421714745971.00,-3.69312,-9.035062,0.4989125
1421714745990.00,0.7171587,-11.244167,0.9969269
1421714746010.00,2.528392,-10.868749,-2.0796254
1421714746069.00,1.2222084,-8.924142,-3.4934354
1421714746070.00,-0.8839119,-8.341404,-1.8558408
1421714746071.00,-1.9764899,-7.463779,-0.89768326
1421714746092.00,-2.0778291,-7.1994286,-0.68422717
1421714746110.00,-1.5078145,-6.6847987,-1.3907579
1421714746132.00,-1.3608202,-5.6893687,-2.0968397
1421714746150.00,-1.8226099,-4.8880854,-2.2385948
1421714746172.00,-2.2378464,-3.909121,-2.3300545
1421714746195.00,-2.257755,-3.1124775,-2.5243506
1421714746227.00,-2.2450314,-2.5767417,-3.4995725
1421714746230.00,-1.7654288,-2.2932312,-4.740193
1421714746250.00,-1.1147319,-2.7572663,-4.989424
1421714746270.00,-0.33470398,-2.6512866,-4.399801
1421714746290.00,0.5281018,-3.3121624,-4.9055986
1421714746310.00,0.9451346,-4.425098,-5.8311243
1421714746335.00,0.46927413,-5.4337006,-6.8557434
1421714746405.00,-0.3091072,-5.977819,-9.551188
1421714746406.00,-1.6260686,-8.3918495,-12.00309
1421714746409.00,-1.7158818,-11.480676,-10.59392
1421714746411.00,-0.39877075,-12.056229,-5.6270986
1421714746430.00,-3.4052687,-8.29979,-1.251248
1421714746450.00,-4.125421,-6.1002645,-5.0440607
1421714746470.00,-1.4103671,-8.10325,-6.0954742
1421714746495.00,-2.637665,-10.147398,-4.3637257
1421714746511.00,-3.2117212,-11.3202095,-4.7038183
1421714746533.00,-2.8651917,-10.474917,-4.5277843
1421714746553.00,-2.6177564,-9.041049,-3.213817
1421714746570.00,-2.1159997,-8.384066,-1.9142194
1421714746590.00,-1.838926,-8.419242,-1.7127384
1421714746614.00,-1.3359718,-9.448951,-0.8479866
1421714746630.00,-0.80233157,-9.987082,-0.57106245
1421714746653.00,-0.7541318,-10.750644,0.003891907
1421714746670.00,-0.45879593,-11.14657,0.37122804
1421714746722.00,-0.4010161,-10.2122135,0.43649232
1421714746723.00,-0.014968872,-9.680669,0.53528684
1421714746732.00,0.2228865,-9.592503,0.5867798
1421714746751.00,0.2350113,-9.422306,-0.21510269
1421714746771.00,0.31150222,-9.021889,-0.41987687
1421714746790.00,0.83092207,-8.93941,-0.37392244
1421714746811.00,1.3198055,-8.803044,-0.007933502
1421714746833.00,1.2678635,-8.736134,-0.51717454
1421714746854.00,0.99333435,-9.411678,-0.35251695
1421714746876.00,0.42825943,-9.82437,-0.3930826
1421714746890.00,-0.33365616,-9.914932,-0.75278455
1421714746911.00,-0.5542973,-9.843979,-1.486409
1421714746931.00,-0.04685257,-9.938433,-1.8488054
1421714746956.00,0.5289999,-9.933643,-0.93450665
1421714746970.00,0.66970736,-9.6657,-0.24249573
1421714746991.00,0.48214737,-9.459129,-0.34727782
1421714747010.00,-0.3878435,-9.092392,-1.140179
1421714747079.00,-0.034129027,-9.270223,-0.8878038
1421714747080.00,0.429906,-9.324709,-0.8111632
1421714747081.00,0.48618898,-8.678353,-1.1761043
1421714747090.00,0.68437684,-8.702004,-0.91893905
1421714747110.00,0.4102968,-8.961265,0.40865022
1421714747130.00,-0.22662872,-9.091644,0.49202684
1421714747150.00,0.1607657,-9.64175,0.21330643
1421714747170.00,0.085921325,-10.056238,0.8376581
1421714747190.00,0.17558487,-10.818902,1.7146842
1421714747210.00,0.791554,-11.832893,3.3235388
1421714747230.00,1.3123211,-12.669205,3.220553
1421714747251.00,-0.12543915,-12.251722,0.9675879
1421714747273.00,-2.4725583,-12.633728,0.8475375
1421714747290.00,-3.686534,-14.001733,1.8821859
1421714747400.00,-2.233655,-14.327905,-0.07619156
1421714747400.00,-1.2388239,-14.050083,-1.4799724
1421714747401.00,-1.0972183,-13.154196,-1.7824932
1421714747402.00,-0.6956035,-12.047098,-2.040407
1421714747403.00,-0.08202942,-11.38218,-2.8056157
1421714747411.00,0.46403503,-11.899954,-3.497926
1421714747456.00,0.7138655,-12.372971,-4.393214
1421714747458.00,0.70368665,-12.58957,-3.4175432
1421714747524.00,-0.36524048,-10.977423,-0.36988083
1421714747525.00,-1.4343174,-10.452314,5.3923864
1421714747526.00,-1.5777191,-10.670711,-0.5240602
1421714747541.00,-3.5670822,-9.269624,-0.9187894
1421714747550.00,-2.720892,-8.774753,1.4019846
1421714747570.00,0.16974701,-9.404194,1.1805949
1421714747592.00,1.663341,-9.139844,-1.5459851
1421714747611.00,1.0214758,-8.330177,-2.8436365
1421714747633.00,-1.0153385,-8.312514,-2.411635
1421714747651.00,-2.2417383,-8.967103,-1.5540683
1421714747674.00,-2.186952,-9.086555,-1.7318985
1421714747723.00,-1.748963,-8.719368,-2.244283
1421714747724.00,-0.8469388,-8.710686,-3.2618668
1421714747730.00,-0.5218149,-8.44918,-3.9760318
1421714747751.00,-0.47166917,-7.879315,-4.1644897
1421714747775.00,-1.0918295,-6.65531,-4.434229
1421714747790.00,-1.3754897,-5.7425084,-4.0624022
1421714747820.00,-1.2015513,-5.312902,-4.3206153
1421714747831.00,-1.3501923,-4.6493316,-4.5445495
1421714747851.00,-1.2557387,-4.203708,-4.7017226
1421714747873.00,-1.0964699,-3.598517,-4.522246
1421714747890.00,-1.1796968,-3.2816257,-5.2635045
1421714747910.00,-1.3310322,-2.9036617,-6.525081
1421714747932.00,-1.6155903,-2.514471,-6.6141458
1421714747952.00,-1.386866,-2.3159838,-6.4041324
1421714747973.00,-0.9159453,-2.764601,-5.856721
1421714747995.00,-1.1428734,-3.3861086,-5.552703
1421714748015.00,-2.376608,-3.6275566,-6.3625193
1421714748082.00,-3.2950978,-5.422923,-8.387658
1421714748082.00,-2.941982,-8.807834,-11.039543
1421714748083.00,-2.0408561,-8.981024,-10.109528
1421714748091.00,-1.9181113,-5.6718554,-9.128018
1421714748110.00,-0.6969507,-4.4176135,-7.226822
1421714748132.00,-1.2439133,-3.2922537,-5.6034474
1421714748151.00,-2.0898042,-4.444258,-7.188202
1421714748171.00,-2.8981233,-8.149353,-7.3721695
1421714748190.00,-2.003883,-10.259665,-7.685468
1421714748211.00,-1.8275496,-10.067016,-6.5401998
1421714748230.00,-3.1509476,-8.358468,-5.921985
1421714748251.00,-2.9850924,-8.297695,-5.9300685
1421714748270.00,-2.765499,-8.922196,-5.169949
1421714748290.00,-2.6295817,-9.548793,-4.706513
1421714748311.00,-2.0531304,-9.779015,-4.0460863
1421714748397.00,-1.3145664,-10.049353,-3.297942
1421714748401.00,-0.7247928,-9.931697,-2.5060885
1421714748401.00,-0.41658372,-9.936038,-2.2637424
1421714748402.00,0.10044113,-9.641002,-2.7255323
1421714748416.00,0.58213943,-9.457783,-1.640738
1421714748431.00,0.98644865,-9.494756,-0.22543122
1421714748450.00,0.98510146,-9.528436,0.22228774
1421714748471.00,1.1755055,-9.39162,0.14489868
1421714748491.00,0.7629634,-8.916208,-0.68018556
1421714748511.00,0.6328839,-8.66548,-1.5247293
1421714748531.00,0.84199905,-9.296418,-1.5486795
1421714748551.00,1.4838643,-10.122101,-0.6423143
1421714748570.00,1.5965799,-9.705368,-0.4674779
1421714748591.00,1.518143,-9.031769,-2.0968397
1421714748611.00,1.379681,-9.097182,-2.463577
1421714748693.00,1.0985656,-9.648336,-2.746788
1421714748694.00,0.46119094,-9.801019,-2.475103
1421714748695.00,0.26869124,-9.257199,-1.061293
1421714748696.00,0.065413974,-9.634266,-0.34563124
1421714748713.00,0.03891907,-10.18512,0.3107538
1421714748731.00,-0.23126908,-9.914184,-0.2830614
1421714748751.00,-0.37751496,-9.565558,0.2017804
1421714748771.00,-0.8322693,-9.209898,-0.016166382
1421714748791.00,-0.99647784,-9.216634,-0.13965958
1421714748812.00,-0.022004241,-9.304202,-0.2891986
1421714748832.00,0.28321105,-9.3012085,-0.07005432
1421714748852.00,0.12723541,-9.355246,-0.44487488
1421714748871.00,0.321232,-9.418414,-0.1366658
1421714748891.00,0.5096901,-9.117241,-0.46777725
1421714748911.00,0.4245172,-8.909622,-0.70024383
1421714748930.00,0.3954776,-9.173075,-0.73751634
1421714748951.00,0.37272492,-9.514813,-0.16031662
1421714749031.00,0.32198045,-9.73321,0.38634658
1421714749032.00,0.13906083,-9.866732,1.1383827
1421714749034.00,0.7839198,-10.237211,1.0837463
1421714749035.00,0.7825726,-10.230775,0.6652167
1421714749051.00,-0.032033388,-10.006841,0.7659572
1421714749070.00,-0.8810678,-9.680819,0.8842113
1421714749091.00,-0.96130097,-10.150841,1.285377
1421714749111.00,-0.6512956,-10.358609,1.3202546
1421714749131.00,-0.5677693,-10.651999,1.0178833
1421714749151.00,-1.0330019,-11.274405,1.1602373
1421714749170.00,-1.6019686,-12.396172,1.9835253
1421714749191.00,-2.5474026,-13.500575,2.3528073
1421714749210.00,-2.4878266,-15.48949,1.4564712
1421714749231.00,-2.038461,-15.068564,-0.45430526
1421714749250.00,-1.3513898,-13.493091,-2.0083735
1421714749271.00,-1.1323951,-12.562626,-2.7144554
1421714749291.00,-0.8759784,-11.774066,-2.9175828
1421714749352.00,-0.445773,-11.628269,-3.0820909
1421714749354.00,-0.18426682,-11.779754,-3.5851946
1421714749355.00,-0.46373567,-11.86837,-4.752467
1421714749371.00,-1.0919793,-11.850706,-5.668113
1421714749391.00,-1.7534537,-11.885883,-3.0820909
1421714749411.00,-2.2532644,-11.3853245,2.2321582
1421714749431.00,-3.4864,-11.066038,6.3837748
1421714749455.00,-4.603078,-11.153307,-2.4583378
1421714749471.00,-4.397106,-10.020163,-3.8405635
1421714749492.00,-2.0680993,-10.198742,-0.45714936
1421714749511.00,0.98644865,-11.299403,0.71820647
1421714749531.00,1.3476475,-9.313333,-2.1056712
1421714749551.00,-0.042810973,-8.440797,-1.6479231
1421714749571.00,-1.5491285,-8.07391,-1.1570938
1421714749591.00,-2.141896,-7.481891,-1.3271402
1421714749610.00,-1.8324894,-6.965166,-2.037114
1421714749700.00,-1.2886702,-6.2622275,-2.989134
1421714749701.00,-1.7506096,-5.1422567,-3.179089
1421714749703.00,-2.619852,-4.124523,-3.1813345
1421714749704.00,-2.4194188,-3.5437307,-3.0720615
1421714749713.00,-2.143243,-2.920876,-3.2057335
1421714749730.00,-1.9721489,-2.5715024,-3.8755906
1421714749751.00,-2.0405567,-2.4595354,-5.6059923
1421714749775.00,-1.5747254,-2.5360262,-5.391638
1421714749790.00,-0.47181883,-2.352957,-4.7663884
1421714749811.00,0.96324694,-2.9508138,-5.1715956
1421714749832.00,1.0157876,-3.7459602,-5.985453
1421714749851.00,0.19309846,-4.6351113,-9.239836
1421714749871.00,-1.2663666,-6.354436,-11.225456
1421714749893.00,-3.3150065,-9.234746,-7.7345657
1421714749911.00,-2.5580306,-10.035281,-7.2989717
1421714749991.00,-3.2745905,-7.8742256,-4.52015
1421714749992.00,-2.514022,-7.002139,-6.0492206
1421714749993.00,-1.9140697,-7.8118052,-5.8314233
1421714749994.00,-2.46208,-9.593999,-5.7986417
1421714750010.00,-3.4102085,-10.756183,-5.269642
1421714750031.00,-2.9036617,-10.272388,-5.0674124
1421714750050.00,-2.6021888,-9.553583,-4.2836423
1421714750072.00,-2.7080185,-9.26678,-3.3805702
1421714750096.00,-2.475552,-9.020691,-3.0418246
1421714750111.00,-2.2802083,-9.158405,-2.4903712
1421714750132.00,-1.8744022,-9.647588,-2.058669
1421714750150.00,-1.10605,-9.750275,-1.2888199
1421714750172.00,-0.13277389,-9.997111,-1.0084529
1421714750191.00,0.45475432,-9.783056,-0.69231033
1421714750211.00,0.78526706,-9.664502,-0.45355684
1421714750230.00,0.95366687,-9.549541,-0.29907808
1421714750251.00,1.1684701,-9.807305,-0.22243744
1421714750317.00,1.0246193,-9.654773,-0.43963578
1421714750318.00,1.3765374,-9.268576,-0.5071454
1421714750319.00,1.1184741,-9.034014,-1.2832814
1421714750333.00,0.7222481,-8.678204,-1.9342777
1421714750350.00,0.74350387,-9.053024,-1.5673906
1421714750370.00,1.3404624,-9.490265,-1.1326946
1421714750391.00,1.453178,-9.969119,-1.7958156
1421714750411.00,0.43439665,-9.632469,-1.9401155
1421714750433.00,-0.75682616,-9.296718,-1.1710149
1421714750451.00,-1.572929,-9.95909,-1.2792398
1421714750471.00,-1.434916,-9.883797,-0.49996033
1421714750492.00,-1.6045134,-9.845476,0.2615062
1421714750512.00,-2.170187,-9.224867,0.5536986
1421714750532.00,-0.98704743,-8.678204,0.7092252
1421714750551.00,0.4963678,-9.205557,-0.5456154
1421714750571.00,0.90876025,-9.153765,-0.77419007
1421714750648.00,0.6170169,-8.744965,-0.4670288
1421714750650.00,0.4593947,-8.809181,-0.38185593
1421714750650.00,0.28470793,-9.153615,-1.0591974
1421714750651.00,0.13756393,-9.202114,-0.91863966
1421714750670.00,0.14654526,-9.554032,-0.40595582
1421714750691.00,0.0398172,-9.727372,0.63078827
1421714750711.00,0.30835876,-10.68972,1.6545094
1421714750730.00,0.8753796,-11.776461,2.9574
1421714750751.00,0.25791368,-11.880794,1.7877324
1421714750771.00,-1.1343411,-11.734398,1.2823833
1421714750791.00,-2.6682014,-13.234428,2.29383
1421714750811.00,-3.6304007,-15.33546,1.5417938
1421714750831.00,-3.304079,-14.947018,-0.32003447
1421714750851.00,-2.5219555,-14.09918,-0.94109297
1421714750872.00,-1.5034735,-13.119318,-1.6783099
1421714750894.00,-0.92028624,-12.529096,-2.690505
1421714750914.00,-0.57001466,-12.494667,-4.1689806
1421714750984.00,-0.1830693,-12.844191,-6.138285
1421714750985.00,-0.14894028,-13.79651,-8.191116
1421714750986.00,-0.705932,-14.915283,-6.1074495
1421714751001.00,-1.585952,-13.504916,5.0734
1421714751012.00,-4.0145016,-12.519964,5.3016753
1421714751032.00,-6.19846,-10.110575,2.3872356
1421714751050.00,-4.3541455,-9.363778,1.6717236
1421714751071.00,-1.041085,-9.708961,-0.64979875
1421714751091.00,2.1754262,-11.024574,-2.8610005
1421714751116.00,1.0154883,-8.727002,-2.8734248
1421714751132.00,-0.6749464,-7.5869727,-0.43020537
1421714751153.00,-1.1567944,-7.1826634,0.37841308
1421714751170.00,-1.317111,-6.3843737,-0.14624588
1421714751191.00,-1.6566051,-5.4539084,-0.8981323
1421714751211.00,-1.699416,-4.763095,-1.8031503
1421714751234.00,-2.190395,-3.9291792,-2.8409421
1421714751300.00,-2.7571166,-3.3549733,-2.8520193
1421714751301.00,-2.7809172,-3.2296839,-2.9418325
1421714751302.00,-1.9544857,-3.1410682,-3.3211436
1421714751311.00,-1.8546432,-2.2023702,-4.819977
1421714751331.00,-1.7745597,-1.7051042,-4.731062
1421714751352.00,-1.5437398,-1.7564474,-4.4951525
1421714751371.00,-0.03772156,-2.445764,-5.577102
1421714751391.00,1.1648777,-3.558101,-6.67477
1421714751411.00,0.9330098,-3.5578015,-7.735015
1421714751431.00,-1.0075548,-3.3832645,-11.135344
1421714751451.00,-3.054548,-9.793235,-12.30127
1421714751471.00,-2.7518775,-15.338753,-8.710686
1421714751491.00,-3.4991236,-11.249706,-3.043471
1421714751511.00,-2.9196784,-6.008805,-5.3030224
1421714751531.00,-2.2498214,-4.8258147,-5.507198
1421714751550.00,-3.7705092,-8.535101,-4.417464
1421714751610.00,-4.070336,-11.979738,-4.98194
1421714751611.00,-2.382745,-12.3437805,-4.9087424
1421714751612.00,-1.7277073,-10.416838,-3.3178506
1421714751632.00,-2.074985,-8.586743,-2.4336393
1421714751651.00,-1.9471508,-8.290211,-2.113904
1421714751671.00,-1.5420932,-9.028475,-1.8268012
1421714751693.00,-0.9457333,-10.039023,-1.3063334
1421714751711.00,-0.39248383,-10.520722,-0.65653473
1421714751737.00,-0.17348923,-10.617571,-0.11466156
1421714751751.00,0.29488677,-10.499316,0.08861572
1421714751771.00,0.3251239,-9.982142,0.26569748
1421714751791.00,0.5709128,-10.024953,0.34623
1421714751811.00,0.65458876,-10.034982,-0.017663268
1421714751831.00,0.38125718,-9.383836,-0.563578
1421714751851.00,0.29159364,-8.613987,-1.4650035
1421714751871.00,0.5547464,-8.289911,-1.5350578
1421714751891.00,1.4208454,-8.808582,-0.77553725
1421714751961.00,1.6425344,-9.042846,-0.15043716
1421714751962.00,1.5361056,-9.635762,-0.803529
1421714751963.00,0.4643344,-9.167536,-1.7468674
1421714751972.00,-0.43484575,-9.610016,-1.672023
1421714751991.00,-0.94872713,-9.710607,-1.131497
1421714752011.00,-1.2307407,-9.654174,-0.88974977
1421714752031.00,-1.2606784,-9.86778,-0.9581575
1421714752051.00,-1.780697,-9.061855,-0.27303222
1421714752071.00,-1.0445279,-9.333092,-0.062719576
1421714752091.00,0.28859985,-9.487571,-0.06870712
1421714752111.00,0.63363236,-9.152717,-0.1978885
1421714752131.00,0.3091072,-8.8564825,-0.29114455
1421714752151.00,0.09415421,-8.759035,0.14250366
1421714752171.00,-0.023650818,-8.950337,-0.1207988
1421714752191.00,-0.1287323,-9.865086,-0.106728055
1421714752211.00,-0.3927832,-10.186767,0.76640624
1421714752231.00,0.041314088,-11.065439,2.5593777
1421714752251.00,1.2386742,-12.280911,3.9818697
1421714752332.00,0.09939331,-12.894036,1.7637821
1421714752333.00,-2.1234841,-13.681849,1.1588901
1421714752333.00,-2.6192532,-15.093713,1.377735
1421714752335.00,-2.468816,-14.425502,0.6372249
1421714752358.00,-2.1700373,-13.322596,-0.15088624
1421714752371.00,-1.5256275,-12.745246,-0.42257127
1421714752391.00,-0.98450273,-12.273427,-0.9303154
1421714752411.00,-0.6611751,-12.546759,-1.9002984
1421714752432.00,-0.63617706,-13.116324,-3.372038
1421714752451.00,0.20836669,-13.007051,-5.968089
1421714752471.00,0.89648575,-14.087056,-7.431596
1421714752491.00,1.9785855,-13.96955,-2.6191034
1421714752511.00,0.07903565,-13.352384,4.786297
1421714752579.00,-2.3661296,-12.181369,5.447622
1421714752580.00,-4.0894957,-9.936188,3.6116896
1421714752581.00,-2.088906,-9.871522,0.780477
1421714752592.00,0.4656816,-11.05077,0.09340576
1421714752611.00,0.79544586,-9.397758,-1.5307169
1421714752631.00,0.042212218,-8.310568,-2.0724404
1421714752651.00,-1.0178833,-6.86218,-0.46373567
1421714752671.00,-1.9056871,-6.7801504,0.5132826
1421714752691.00,-1.4567707,-7.0941978,-0.9222322
1421714752712.00,-1.3226495,-6.522686,-1.9019449
1421714752732.00,-1.9788849,-6.0074573,-2.2489233
1421714752752.00,-2.9111462,-5.4655843,-2.4773483
1421714752772.00,-3.341651,-4.916227,-2.8518696
1421714752791.00,-3.0847852,-4.482728,-3.0301487
1421714752811.00,-2.4388783,-4.0433917,-3.2019913
1421714752831.00,-2.4742048,-3.6003132,-3.7618272
1421714752851.00,-2.909799,-3.0326934,-4.3658214
1421714752922.00,-3.09691,-1.805246,-4.353247
1421714752923.00,-2.356849,-0.9045689,-4.7295647
1421714752924.00,-1.0379416,-1.0988649,-6.2840824
1421714752933.00,-0.007484436,-1.9743942,-8.007598
1421714752963.00,-0.08996292,-2.5333319,-12.570859
1421714752971.00,-2.776576,-4.598587,-12.05114
1421714752992.00,-2.4011567,-8.887169,-6.602021
1421714753012.00,-5.944139,-10.22374,-4.9877777
1421714753031.00,-2.6966424,-11.21872,-7.5139246
1421714753051.00,-3.1096334,-9.832603,-5.1120195
1421714753071.00,-4.248465,-9.398655,-4.9668217
1421714753091.00,-4.396657,-9.773326,-5.206174
1421714753111.00,-3.9083724,-9.734258,-4.1835003
1421714753132.00,-3.1349308,-9.086854,-3.3696427
1421714753151.00,-2.5273445,-8.439301,-2.7488837
1421714753172.00,-2.089505,-8.475675,-2.4013064
1421714753230.00,-1.1576926,-9.175469,-1.5185921
1421714753230.00,0.028740235,-9.256451,-1.0913805
1421714753231.00,0.92821974,-9.134604,-0.6227051
1421714753251.00,1.217568,-9.197174,-0.35116974
1421714753271.00,1.4220428,-9.339528,-0.03397934
1421714753291.00,1.3889617,-9.698931,0.17947678
1421714753311.00,1.5060182,-9.976154,0.21480331
1421714753333.00,1.4105169,-10.030192,-0.019010467
1421714753353.00,-0.17588425,-9.488917,-1.2605287
1421714753371.00,-0.47496232,-9.776619,-2.2556593
1421714753391.00,-0.6303392,-8.555758,-2.3619382
1421714753411.00,-0.8596623,-8.156388,-1.4814693
1421714753431.00,-0.7478449,-8.724907,-0.36583924
1421714753451.00,-0.2733316,-9.042247,-0.012723541
1421714753471.00,0.38904098,-9.240285,0.044008482
1421714753499.00,0.221689,-9.910891,0.19160156
1421714753558.00,-0.4617897,-10.216405,0.22617966
1421714753561.00,-1.0955718,-9.794882,0.15911911
1421714753562.00,-1.0867401,-9.474847,-0.29503646
1421714753578.00,-0.97567105,-9.08401,-0.5198689
1421714753591.00,-0.7855664,-9.193282,0.26929
1421714753612.00,-0.9912387,-9.538614,1.0307565
1421714753632.00,-1.1300001,-9.270672,0.916544
1421714753651.00,-0.64321244,-9.650282,0.038020935
1421714753671.00,-0.38320312,-9.750723,0.100291446
1421714753693.00,-0.09669891,-9.449999,0.77523786
1421714753715.00,0.23680755,-9.430839,0.778531
1421714753731.00,0.40251297,-9.573941,0.30895752
1421714753751.00,0.17977615,-9.604029,-0.03891907
1421714753772.00,-0.09744736,-9.957743,0.23111938
1421714753791.00,-0.17947678,-10.4815035,1.0864407
1421714753811.00,0.04670288,-11.464061,0.97058165
1421714753834.00,0.7393126,-13.56584,1.5872992
1421714753920.00,0.4514612,-13.769117,1.4123131
1421714753921.00,-0.83346677,-13.014686,-0.7933502
1421714753922.00,-1.3626164,-12.518618,-1.4786252
1421714753923.00,-1.5429913,-11.474838,-1.6875906
1421714753932.00,-1.1256592,-10.753637,-1.0843451
1421714753952.00,0.39083725,-10.49767,-0.34039214
1421714753971.00,0.9806108,-10.82459,1.5286212
1421714753993.00,1.3504916,-10.588232,3.3605118
1421714754012.00,1.2115805,-10.322085,3.0966105
1421714754036.00,0.03996689,-10.615924,2.0913012
1421714754055.00,-0.93256074,-11.261232,0.57225996
1421714754071.00,-1.8205142,-11.027867,-1.3109738
1421714754091.00,-2.2507195,-11.194022,-1.4745836
1421714754111.00,-1.4591657,-11.201806,3.3188982
1421714754132.00,-0.67225206,-9.694889,1.1976595
1421714754151.00,-0.44233018,-8.743019,-0.76925033
1421714754218.00,-0.79394895,-8.170909,1.629212
1421714754221.00,-0.8674461,-6.9786377,2.157164
1421714754222.00,-1.1796968,-5.8707914,1.8357825
1421714754231.00,-1.6492703,-5.4058585,1.8952088
1421714754251.00,-2.0692968,-4.8297067,1.4597644
1421714754271.00,-2.4792943,-4.346062,0.18755996
1421714754291.00,-2.753075,-4.3987527,-1.6601976
1421714754312.00,-2.6683512,-5.3410435,-2.8572583
1421714754332.00,-2.1097128,-7.530241,-3.8317318
1421714754354.00,-0.11855347,-11.556868,-5.3482285
1421714754373.00,2.22647,-16.411871,-5.748496
1421714754392.00,2.0215461,-15.6525,-7.707772
1421714754415.00,-0.101339266,-12.296928,-7.711813
1421714754432.00,-1.9874171,-9.688153,-4.33259
1421714754451.00,-3.336412,-7.4266562,-0.3984714
1421714754471.00,-3.3480875,-9.965976,0.28051665
1421714754491.00,0.123493195,-17.599203,-1.2981006
1421714754558.00,0.13172607,-12.917687,0.23411316
1421714754559.00,-3.539689,-5.370083,5.035229
1421714754560.00,-5.605094,-3.1265483,6.1728635
1421714754571.00,-4.7095065,-6.223009,5.7477474
1421714754591.00,-2.772684,-9.801767,3.7823346
1421714754611.00,-0.17169297,-13.698315,3.7742515
1421714754631.00,1.7455201,-13.249547,0.60489213
1421714754651.00,2.8080108,-10.196795,-2.796335
1421714754672.00,1.6116985,-9.626632,-1.2705579
1421714754691.00,-0.13127701,-9.017697,0.48933244
1421714754711.00,-1.5293697,-9.104517,1.2859758
1421714754732.00,-1.8791922,-9.730216,1.3289365
1421714754751.00,-0.83256865,-9.893227,0.12693603
1421714754777.00,-0.27827132,-9.959839,-0.6575825
1421714754801.00,-0.19624192,-9.774374,-0.8342152
1421714754811.00,-0.34937346,-9.473351,-0.089214474
1421714754881.00,-0.71162015,-9.398207,1.0376422
1421714754882.00,-1.1614348,-9.24762,1.2826827
1421714754883.00,-1.294059,-9.328451,0.97372514
1421714754893.00,-1.5852035,-9.437574,0.5295987
1421714754912.00,-1.5904427,-9.159902,0.102387086
1421714754931.00,-1.2388239,-9.010512,0.20552261
1421714754954.00,-0.95381653,-9.26663,0.4658313
1421714754971.00,-0.7975415,-9.3751545,0.29428804
1421714754991.00,-0.5670209,-9.562265,0.42152345
1421714755012.00,-0.3106041,-9.930499,0.5016069
1421714755031.00,0.102536775,-10.18048,0.20731887
1421714755051.00,0.6477031,-9.988429,-0.07948471
1421714755072.00,0.5755531,-10.056837,0.5242099
1421714755091.00,0.23291565,-10.279124,-0.22812562
1421714755111.00,0.43364823,-10.468631,-1.9585272
1421714755134.00,0.72015244,-11.646232,-1.309926
1421714755157.00,1.2368779,-13.504467,0.08876541
1421714755174.00,2.2288651,-15.143259,0.74919206
1421714755242.00,1.1759546,-14.630276,0.3118016
1421714755243.00,-1.8422191,-12.393028,-1.3254936
1421714755243.00,-2.7253826,-10.839409,-1.9294876
1421714755253.00,-1.355581,-10.610985,-0.9086105
1421714755272.00,-0.17304017,-10.6873255,-0.1646576
1421714755291.00,0.49666718,-11.502081,-0.0755928
1421714755311.00,0.5334906,-11.690989,1.3120216
1421714755331.00,0.39742357,-12.886552,2.968477
1421714755351.00,0.31105316,-12.100536,1.2114308
1421714755371.00,0.29803026,-11.231295,-0.38904098
1421714755392.00,-0.4924759,-11.619138,0.75278455
1421714755411.00,0.023052063,-13.643079,3.4976265
1421714755432.00,-0.6212082,-13.148209,-1.0014175
1421714755452.00,-1.5962806,-11.847413,-0.7711963
1421714755473.00,-1.0053095,-11.983181,-1.2308904
1421714755495.00,-0.8957373,-11.477682,-2.279909
1421714755561.00,-1.3561798,-10.463391,-1.7220191
1421714755563.00,-1.022823,-9.860445,-1.0987152
1421714755564.00,-0.6027965,-9.508826,-1.3177098
1421714755572.00,-0.6939569,-9.0076685,-1.083896
1421714755591.00,-1.6022681,-8.23782,-1.5576608
1421714755612.00,-2.615511,-6.2319903,-2.3466702
1421714755631.00,-2.9623399,-3.4413438,-2.6211991
1421714755652.00,-2.7672954,-1.7812958,-3.40946
1421714755681.00,-2.5004003,-1.8377284,-3.3566198
1421714755691.00,-2.3863375,-2.4427702,-3.4889448
1421714755711.00,-1.9440074,-3.1539414,-4.4873686
1421714755733.00,-1.1027569,-4.517456,-5.3476295
1421714755751.00,-0.98944247,-5.0572333,-6.162086
1421714755771.00,-1.1297008,-4.96742,-6.5327153
1421714755845.00,-1.5093113,-4.439318,-5.817353
1421714755846.00,-1.8242564,-3.9010377,-5.1864147
1421714755846.00,-2.7854078,-4.3917174,-7.0739894
1421714755851.00,-4.2974133,-9.258846,-12.211606
1421714755871.00,-5.0434623,-13.337564,-10.519225
1421714755891.00,-1.739383,-10.692116,-6.523135
1421714755911.00,-2.76505,-7.0912037,-3.331622
1421714755931.00,-4.0874004,-5.769602,-5.193899
1421714755952.00,-2.407743,-8.190667,-6.00611
1421714755972.00,-3.4414933,-10.347682,-4.867877
1421714755992.00,-3.9049296,-11.024874,-4.572541
1421714756014.00,-3.0647268,-9.978998,-3.7872744
1421714756031.00,-2.108216,-8.696765,-2.8048673
1421714756051.00,-1.631607,-8.241562,-1.9330802
1421714756071.00,-0.7819739,-8.878188,-0.9440868
1421714756097.00,0.06346802,-9.655671,-0.16974701
1421714756113.00,0.5933661,-9.848769,-0.35221756
1421714756173.00,0.36434233,-9.968071,-1.0169852
1421714756174.00,0.21959335,-9.402397,-1.5313156
1421714756174.00,-0.39472917,-8.717721,-1.1546988
1421714756191.00,-0.30386811,-8.595126,0.023201752
1421714756211.00,-0.052989807,-8.787327,-0.13097763
1421714756231.00,0.5894742,-9.912686,0.15178436
1421714756253.00,1.7591418,-10.683583,-0.09505234
1421714756271.00,1.5711328,-10.476115,-1.4163547
1421714756291.00,1.126707,-9.616602,-1.19736
1421714756312.00,1.2407699,-9.613009,-0.8443941
1421714756331.00,0.9722282,-10.131831,-0.8431966
1421714756352.00,0.25042924,-10.642569,-1.0144404
1421714756372.00,-0.49127838,-9.818382,-1.079106
1421714756391.00,-1.0762619,-9.534872,-0.59785676
1421714756411.00,-1.5142511,-9.193132,-0.56178176
1421714756432.00,-1.6399896,-9.13206,0.030985566
1421714756453.00,-1.2903168,-9.191936,0.25911117
1421714756544.00,-0.86445236,-9.196875,-0.5875282
1421714756544.00,-0.30731094,-9.193132,0.32706985
1421714756545.00,-0.17079483,-9.341025,0.95875627
1421714756546.00,0.21046235,-9.546698,-0.35356477
1421714756554.00,0.4872368,-9.425599,-0.44906616
1421714756572.00,0.28201354,-9.22322,-0.37212616
1421714756595.00,0.39697447,-9.2331,0.054037627
1421714756612.00,0.10208771,-9.433533,-0.09909394
1421714756632.00,0.13127701,-10.283765,0.11555969
1421714756657.00,0.6637198,-11.861783,1.4708414
1421714756672.00,1.2880714,-13.219759,2.4878266
1421714756692.00,0.010029145,-13.419594,1.8121316
1421714756711.00,-1.7792001,-14.103372,2.158212
1421714756731.00,-2.8080108,-14.3306,1.7133371
1421714756752.00,-2.7101142,-13.677807,0.4233197
1421714756817.00,-2.7403514,-12.716506,-0.2694397
1421714756818.00,-2.3776557,-11.98363,-0.8493338
1421714756819.00,-1.5081139,-11.697575,-1.2611275
1421714756831.00,-1.0979668,-11.843222,-1.9149678
1421714756852.00,-0.74544984,-11.954441,-3.6251614
1421714756871.00,0.44143203,-12.735966,-6.009553
1421714756891.00,1.6748672,-13.338762,-6.945856
1421714756911.00,0.72299653,-12.729229,-0.27408004
1421714756934.00,-0.51822233,-12.371174,3.7675154
1421714756956.00,-3.6570451,-11.214978,5.5616846
1421714756972.00,-3.9992335,-9.758357,3.6368372
1421714756991.00,-1.9467018,-9.92077,0.24114853
1421714757012.00,1.2817845,-10.735825,-3.3659005
1421714757032.00,0.468376,-8.483758,-5.108427
1421714757052.00,-1.3461506,-8.121511,-3.263214
1421714757073.00,-2.0323238,-7.2628965,-1.4421011
1421714757091.00,-1.925446,-7.28535,-0.26105714
1421714757154.00,-0.8418494,-7.2124515,-1.0880873
1421714757159.00,-0.276026,-6.521189,-1.6573535
1421714757160.00,-0.6396199,-5.917644,-2.3710694
1421714757171.00,-1.4139596,-5.021907,-2.700235
1421714757193.00,-1.9356248,-4.075425,-2.7577152
1421714757211.00,-1.8664687,-3.1707065,-2.810855
1421714757232.00,-2.3176305,-1.8522482,-3.7365298
1421714757252.00,-2.5566833,-1.7527052,-4.58287
1421714757271.00,-1.986968,-2.1589603,-4.6006827
1421714757292.00,-0.73048097,-2.6738896,-5.277426
1421714757311.00,0.63078827,-3.3787737,-6.502029
1421714757331.00,0.9145981,-3.5943255,-7.56916
1421714757351.00,-0.56597304,-2.7086174,-7.4202194
1421714757371.00,-2.790497,-4.7593527,-10.103989
1421714757391.00,-3.698958,-12.813205,-10.42537
1421714757411.00,-2.1363573,-15.015575,-5.242099
1421714757431.00,-3.188819,-10.011781,-3.7610788
1421714757505.00,-3.9680984,-4.9270043,-5.174589
1421714757505.00,-2.8928843,-6.092331,-5.4543576
1421714757506.00,-4.4304867,-10.093211,-4.056265
1421714757513.00,-3.5293608,-12.474908,-4.1926312
1421714757532.00,-2.2381458,-11.675121,-3.8317318
1421714757554.00,-2.0692968,-9.7128525,-2.9524603
1421714757572.00,-2.1281245,-8.679252,-2.3493645
1421714757591.00,-1.8294955,-8.516689,-2.0767813
1421714757612.00,-1.6084054,-9.010812,-1.2168196
1421714757631.00,-0.61761564,-9.623937,-0.039517824
1421714757651.00,0.46253815,-10.577753,-0.33096176
1421714757672.00,1.3997393,-10.979069,-0.62135786
1421714757692.00,1.7372873,-10.662028,-1.0279125
1421714757711.00,1.219514,-9.93993,-1.1193722
1421714757732.00,0.6417155,-9.430839,0.122295685
1421714757829.00,0.33754808,-9.638756,0.8503816
1421714757831.00,0.11630814,-9.568552,0.035326537
1421714757837.00,-0.048499145,-9.128767,-2.11585
1421714757837.00,0.40236327,-8.744965,-2.1829107
1421714757838.00,1.0560539,-9.345816,-1.2284954
1421714757855.00,1.4016852,-9.727222,-0.92971665
1421714757876.00,0.91609496,-9.219028,-0.9725276
1421714757895.00,0.3475772,-9.103918,-1.2844789
1421714757912.00,-0.041763153,-9.916129,-1.5862514
1421714757932.00,-0.5724097,-9.746681,-1.5380516
1421714757958.00,-0.8481363,-9.264534,-1.9938538
1421714757972.00,-0.7183562,-9.431587,-1.6063097
1421714757994.00,-0.49352372,-8.941057,0.04101471
1421714758011.00,0.8026309,-9.059011,-0.41942778
1421714758032.00,1.864373,-9.359587,-1.1729608
1421714758051.00,1.5446379,-8.771909,-0.5110373
1421714758072.00,-0.27258316,-8.303083,0.23082
1421714758091.00,-1.0508149,-9.125025,-0.5400769
1421714758116.00,-0.86759585,-10.406509,-0.40535706
1421714758177.00,0.020956421,-11.667787,1.6028668
1421714758178.00,0.875679,-13.079351,2.4378304
1421714758179.00,0.10972183,-13.522729,1.2612772
1421714758192.00,-1.8526973,-14.204112,1.6928297
1421714758212.00,-3.0509555,-14.551989,1.2683126
1421714758232.00,-3.25558,-13.929883,-0.29294083
1421714758252.00,-2.8081603,-13.138927,-1.2301419
1421714758272.00,-2.0646565,-12.345128,-1.6717236
1421714758291.00,-1.137784,-12.860058,-1.7703685
1421714758312.00,-0.8837622,-12.970528,-2.4777975
1421714758331.00,-0.7607181,-12.602742,-5.2376084
1421714758351.00,-0.5414241,-13.255086,-7.5476046
1421714758373.00,0.3649411,-13.49863,-7.073391
1421714758393.00,-0.7695497,-13.360467,2.9698243
1421714758460.00,-2.9961693,-11.84891,6.365513
1421714758461.00,-5.4422326,-9.721085,5.1313295
1421714758462.00,-3.4173934,-9.500144,1.6317568
1421714758494.00,-0.9382489,-9.96852,-1.221909
1421714758495.00,1.7423767,-10.506501,-2.5265958
1421714758512.00,1.0312057,-8.760532,-2.7635531
1421714758532.00,-0.5743556,-7.4251595,-1.4897021
1421714758553.00,-1.4900016,-6.72267,-0.5312453
1421714758572.00,-1.5468832,-6.4743366,-0.49651748
1421714758592.00,-1.4385086,-6.539002,-1.3964461
1421714758613.00,-1.4467415,-6.142177,-1.9919078
1421714758632.00,-1.8872753,-5.3600535,-2.435136
1421714758651.00,-2.4547453,-4.304449,-2.703528
1421714758672.00,-2.624193,-3.6877313,-3.0359867
1421714758692.00,-2.4069946,-3.4549654,-3.4923875
1421714758711.00,-2.2315595,-2.8244765,-4.6635523
1421714758732.00,-2.4575894,-2.3415806,-5.0350795
1421714758793.00,-2.0945942,-2.543361,-4.718338
1421714758793.00,-0.9969269,-3.6212695,-5.243147
1421714758794.00,0.2733316,-4.5912523,-6.3652134
1421714758815.00,0.26360184,-4.333638,-6.8505044
1421714758831.00,-0.51148635,-3.3278797,-7.3793545
1421714758852.00,-1.7946181,-3.4823585,-11.124866
1421714758872.00,-3.0256581,-9.259894,-12.115954
1421714758891.00,-2.7165508,-13.540692,-8.320598
1421714758913.00,-1.6567547,-10.926678,-2.6958938
1421714758932.00,-4.3372307,-6.2150755,-4.351301
1421714758951.00,-2.8499236,-6.037395,-6.472241
1421714758972.00,-3.3438964,-8.788225,-4.897665
1421714758992.00,-4.3050475,-11.548485,-4.315526
1421714759012.00,-3.079097,-11.869567,-4.5628114
1421714759032.00,-2.3623874,-10.658586,-3.6447706
1421714759052.00,-2.0377126,-9.141939,-2.1209395
1421714759137.00,-1.6895366,-8.666977,-1.4886544
1421714759138.00,-1.2662169,-9.081315,-0.8571176
1421714759138.00,-0.7135661,-9.4877205,-0.24878265
1421714759139.00,-0.33650026,-9.878857,-0.13067825
1421714759152.00,-0.14774276,-10.27643,0.09624985
1421714759172.00,0.1511856,-10.213112,0.45729905
1421714759192.00,0.6167175,-9.907298,0.69470537
1421714759212.00,1.2608281,-9.620644,0.42167312
1421714759232.00,1.2852273,-9.127869,-0.18696122
1421714759252.00,0.3052153,-8.923543,-1.0509645
1421714759271.00,0.41119492,-8.686586,-1.4956897
1421714759292.00,0.99363375,-8.6981125,-1.1687695
1421714759313.00,1.7856368,-9.491313,-0.6322852
1421714759332.00,1.9637663,-10.163565,-0.74365354
1421714759356.00,1.4022839,-9.80057,-1.5645465
1421714759372.00,0.3968248,-9.672885,-1.3198055
1421714759392.00,-0.30341902,-9.692045,-1.3771362
1421714759412.00,-0.49157774,-9.752969,-1.2455598
1421714759496.00,-0.27093658,-9.660012,-0.5105882
1421714759497.00,-0.9156459,-9.210197,-0.014220429
1421714759498.00,-1.5124549,-8.686736,0.7214996
1421714759499.00,0.16645385,-9.186247,0.31479537
1421714759517.00,1.5420932,-9.428892,-0.44352767
1421714759532.00,1.607058,-8.989107,-0.13277389
1421714759552.00,0.7946974,-8.853189,0.19085312
1421714759572.00,-0.22932312,-9.066047,0.58213943
1421714759592.00,-0.3995192,-9.597292,0.035775606
1421714759612.00,-0.48469207,-10.006392,-0.03876938
1421714759632.00,-0.46897477,-11.243718,0.73332506
1421714759652.00,0.5319937,-12.554243,2.4697142
1421714759673.00,1.4825171,-13.385165,3.5625916
1421714759692.00,-0.51837206,-13.564642,0.43993515
1421714759713.00,-1.5593075,-14.308146,0.75428146
1421714759796.00,-1.7431252,-13.927637,0.7884105
1421714759797.00,-1.8272502,-13.102853,0.0371228
1421714759798.00,-1.4894028,-12.661271,-0.15837067
1421714759799.00,-0.99992067,-11.961776,-1.0846444
1421714759815.00,-0.73152876,-12.238101,-2.4444168
1421714759831.00,-0.8478369,-12.9805565,-3.6314483
1421714759852.00,-0.31509477,-12.6091795,-5.6760464
1421714759871.00,0.019160157,-12.799883,-7.3307056
1421714759898.00,0.19145188,-13.460159,-4.2590933
1421714759913.00,-0.6499484,-12.409644,5.958958
1421714759932.00,-2.2906866,-11.166479,6.1498113
1421714759952.00,-3.74132,-9.905052,3.1048434
1421714759972.00,-3.2636633,-9.560469,0.22902374
1421714759992.00,-0.23082,-10.413994,-0.7997868
1421714760012.00,1.075214,-9.191936,-4.0631504
1421714760032.00,0.11032059,-8.226443,-2.4968078
1421714760103.00,-1.4413527,-7.003037,-1.7256116
1421714760105.00,-1.6140934,-7.1527257,0.09490265
1421714760106.00,-1.411415,-7.2048173,-0.6138734
1421714760116.00,-0.95531344,-6.534811,-1.6661851
1421714760132.00,-0.6227051,-5.945337,-2.0535796
1421714760151.00,-1.3087285,-5.2706895,-2.8818073
1421714760171.00,-1.8800904,-4.2598414,-2.7114615
1421714760192.00,-1.9341279,-3.257077,-3.0279036
1421714760218.00,-1.6892372,-2.7418482,-3.9157073
1421714760236.00,-2.2055137,-2.2052143,-4.797224
1421714760254.00,-2.1782703,-1.9010468,-4.4715014
1421714760272.00,-1.0195298,-2.6536818,-4.5018883
1421714760305.00,-0.09385483,-3.0832882,-5.6357803
1421714760312.00,0.46283752,-3.373385,-7.291487
1421714760332.00,-7.48E-04,-4.7340555,-13.02202
1421714760402.00,-2.2079086,-8.107889,-10.742261
1421714760403.00,-3.1722033,-11.363619,-8.720117
1421714760404.00,-4.1987686,-11.141032,-0.3607498
1421714760413.00,-4.006269,-6.659202,-5.1248927
1421714760432.00,-1.7054036,-6.819818,-6.004164
1421714760452.00,-2.8104057,-9.828412,-4.471202
1421714760472.00,-3.905678,-11.994557,-4.1520658
1421714760497.00,-2.3791525,-11.580518,-4.324657
1421714760514.00,-1.674418,-10.3866005,-2.9436288
1421714760534.00,-1.8077906,-9.313333,-2.1170475
1421714760552.00,-1.9435583,-8.6611395,-1.9446062
1421714760572.00,-1.5826589,-8.648266,-1.213227
1421714760593.00,-0.2830614,-9.66585,-0.42152345
1421714760611.00,0.7393126,-10.5675745,0.121547244
1421714760634.00,1.2123289,-11.067535,0.029488677
1421714760659.00,1.4194981,-10.71906,0.3607498
1421714760674.00,1.2006532,-10.224788,0.034129027
1421714760692.00,0.76461,-9.217981,-0.18741028
1421714760760.00,0.2799179,-8.825498,-0.007634125
1421714760761.00,0.5224136,-8.6032095,-0.51028883
1421714760762.00,0.8253836,-8.892558,-1.0195298
1421714760773.00,1.3454022,-9.201216,-1.3846207
1421714760792.00,2.2592518,-9.541907,-1.0879376
1421714760812.00,2.4213648,-9.517658,-1.0925779
1421714760832.00,1.2687616,-9.100026,-1.3103751
1421714760852.00,0.058079224,-9.100326,-1.1265574
1421714760873.00,-0.4126918,-9.9782505,-1.651815
1421714760904.00,-0.7605684,-9.754166,-1.165626
1421714760912.00,-1.0428814,-9.6356125,-1.278192
1421714760932.00,-1.0062076,-9.334589,-1.2719051
1421714760952.00,-1.0436298,-9.151669,0.5230124
1421714760972.00,-0.38919067,-9.165441,-0.17962646
1421714760996.00,0.67210233,-9.2239685,-1.1984079
1421714761057.00,1.1350895,-9.047635,-0.947829
1421714761058.00,0.64845157,-8.898096,-0.8785231
1421714761059.00,0.33994308,-8.7576885,-1.241668
1421714761076.00,0.32272887,-8.971594,-0.31808853
1421714761092.00,0.20507355,-9.439671,0.51971924
1421714761112.00,-0.17363891,-9.976753,0.90591615
1421714761132.00,-0.09610016,-10.863359,2.0589683
1421714761152.00,1.3374687,-11.328293,2.7062223
1421714761172.00,1.081501,-11.601924,1.0788066
1421714761192.00,-0.7219487,-11.075169,1.0572515
1421714761212.00,-2.1627026,-11.744428,1.9955003
1421714761237.00,-2.289489,-14.202017,3.3880546
1421714761252.00,-1.8564395,-14.481186,1.6491207
1421714761272.00,-1.5256275,-14.187048,0.043110352
1421714761292.00,-1.4437478,-13.671221,-0.24219635
1421714761312.00,-1.2605287,-12.280462,-0.9991722
1421714761333.00,-1.2865746,-11.352841,-1.5759228
1421714761405.00,-1.5072157,-11.655362,-2.376907
1421714761406.00,-1.6964222,-12.867093,-3.273393
1421714761407.00,-0.79020673,-13.30583,-4.142336
1421714761416.00,-0.09011261,-12.502002,-5.3476295
1421714761432.00,0.9830058,-12.100388,-5.1653085
1421714761452.00,0.037871245,-11.828702,2.050436
1421714761472.00,-2.041305,-11.584709,3.156486
1421714761496.00,-4.8451247,-10.230775,1.4361136
1421714761512.00,-4.596342,-9.777068,1.0353969
1421714761534.00,-1.8456619,-9.910591,-0.59890455
1421714761552.00,0.6756949,-10.097702,-1.7751585
1421714761572.00,0.9418414,-9.372161,-1.9607725
1421714761592.00,-0.057929534,-9.265133,-1.4880556
1421714761612.00,-1.506617,-8.235125,-0.9539662
1421714761631.00,-1.4882053,-7.2880445,-0.84738785
1421714761654.00,-1.3991405,-6.7144375,-1.992806
1421714761719.00,-1.4328204,-6.4963408,-2.191443
1421714761720.00,-1.9919078,-6.35234,-2.9344976
1421714761721.00,-2.3884332,-5.3497252,-3.356171
1421714761732.00,-2.6990373,-4.465963,-3.1569352
1421714761752.00,-2.5632696,-3.3211436,-3.0539494
1421714761772.00,-2.5176146,-2.877167,-3.1626234
1421714761792.00,-2.7405012,-2.7216403,-3.8398151
1421714761812.00,-2.9331505,-2.3218217,-5.0446596
1421714761832.00,-2.6641598,-1.9984941,-4.890929
1421714761852.00,-1.8113832,-2.1210892,-5.7847204
1421714761873.00,-0.5492079,-3.1460078,-6.4643073
1421714761892.00,0.031883698,-3.9761815,-6.8433194
1421714761912.00,-0.8728349,-4.6403503,-9.594149
1421714761932.00,-2.7026298,-4.9891253,-13.474978
1421714761952.00,-4.5653563,-6.5253806,-7.461234
1421714761972.00,-3.037783,-9.232501,-6.3493466
1421714761992.00,-6.0640397,-7.54027,-4.206852
1421714762061.00,-3.255131,-8.2373705,-7.065607
1421714762062.00,-3.002157,-8.287815,-5.78502
1421714762062.00,-3.9848635,-9.080118,-5.6143746
1421714762072.00,-4.3141785,-9.578133,-5.3754716
1421714762092.00,-3.5601966,-9.423204,-4.8503637
1421714762116.00,-3.269501,-9.048234,-4.216432
1421714762132.00,-2.8981233,-8.672814,-3.6200721
1421714762152.00,-2.3412812,-8.42508,-3.135829
1421714762173.00,-1.848506,-8.884924,-3.0518537
1421714762202.00,-1.6116985,-9.53113,-1.9290385
1421714762212.00,-0.85502195,-10.137519,-1.6121476
1421714762232.00,-0.122145995,-9.6163025,-1.0931767
1421714762252.00,0.38155654,-9.128468,-0.82717985
1421714762272.00,0.5417235,-8.867111,-0.8611592
1421714762292.00,0.54621416,-9.066795,-0.2866539
1421714762394.00,0.7873627,-9.628727,0.29668304
1421714762395.00,0.90786207,-9.984238,0.43379793
1421714762396.00,0.99183744,-10.308463,0.55384827
1421714762397.00,0.92552537,-10.288555,-0.29937744
1421714762398.00,0.012723541,-9.710756,-1.6995658
1421714762413.00,-0.4593947,-9.336235,-1.6142431
1421714762442.00,0.1366658,-9.496851,-0.59246796
1421714762505.00,0.8358618,-9.237142,0.08966354
1421714762506.00,1.1708652,-8.992849,-0.46927413
1421714762506.00,1.1362871,-9.103619,-0.79035646
1421714762522.00,0.8946895,-9.325158,-0.8162526
1421714762532.00,0.11960129,-9.53113,-0.7414082
1421714762553.00,-0.47331575,-9.852062,-0.7301816
1421714762572.00,-1.1990067,-9.3928175,-1.2313395
1421714762594.00,-1.4959891,-9.259894,-0.9741742
1421714762612.00,-1.2876223,-9.092841,-0.32362702
1421714762632.00,-1.0568024,-9.021739,0.088016964
1421714762652.00,-1.0153385,-9.060808,0.30027556
1421714762717.00,-0.58333695,-9.778865,0.18636246
1421714762718.00,-0.10732681,-10.022109,-0.5242099
1421714762719.00,0.73871386,-9.756711,-1.3337265
1421714762732.00,1.5405964,-9.869876,-1.547482
1421714762752.00,1.923051,-9.852212,-0.5692662
1421714762772.00,1.1648777,-9.899963,0.34024248
1421714762792.00,-0.7382648,-10.168205,-0.15088624
1421714762815.00,-1.3822256,-10.890154,-2.2185366
1421714762832.00,0.007933502,-12.325069,-1.665287
1421714762855.00,0.97776675,-15.299984,0.6731502
1421714762873.00,0.7408095,-15.073055,2.184108
1421714762896.00,-0.9301657,-13.400284,-0.8370593
1421714762919.00,-2.2381458,-11.626023,-2.8410919
1421714762932.00,-2.891537,-10.597662,-2.586621
1421714762953.00,-1.2603791,-10.320438,-0.7747888
1421714763023.00,0.11660752,-10.624307,0.8376581
1421714763024.00,1.6711249,-10.978919,0.9951306
1421714763025.00,2.7695408,-10.624157,1.6350499
1421714763034.00,2.3339465,-10.465337,3.4404457
1421714763053.00,1.4397061,-11.125914,3.6530035
1421714763072.00,0.32886612,-10.559791,1.9333795
1421714763092.00,0.35760635,-10.341395,1.5964302
1421714763112.00,-0.060923308,-10.64691,3.5423837
1421714763133.00,-0.89079756,-10.462792,1.954785
1421714763157.00,-1.3883629,-9.733659,0.5882767
1421714763176.00,-1.6790584,-8.795111,0.8613089
1421714763192.00,-1.0945239,-8.021968,1.5608042
1421714763215.00,-0.68123335,-7.7790236,1.470991
1421714763232.00,-0.5414241,-7.265591,2.0266356
1421714763252.00,-1.1831397,-7.095994,2.3188279
1421714763272.00,-1.710942,-6.9633694,1.7835411
1421714763356.00,-2.384242,-6.608757,0.33365616
1421714763358.00,-3.2022908,-6.132298,-2.0151095
1421714763360.00,-4.02977,-6.470145,-3.6545005
1421714763362.00,-3.3370106,-8.281229,-4.0124063
1421714763377.00,-1.4620098,-10.214758,-4.26059
1421714763392.00,0.6870712,-11.623629,-3.188819
1421714763413.00,1.6440312,-11.600277,-3.3651521
1421714763433.00,2.287992,-10.590327,-6.3008475
1421714763457.00,1.7871337,-9.605076,-6.0338025
1421714763475.00,0.086969145,-8.866213,-2.4373815
1421714763493.00,-0.26300308,-9.044043,-0.7382648
1421714763512.00,-0.08038285,-9.321116,-1.3519886
1421714763533.00,-1.0301578,-13.56569,-0.75652677
1421714763552.00,-0.84589094,-18.644928,-0.30970597
1421714763572.00,-1.9565812,-13.57048,-1.9517913
1421714763593.00,-5.4410353,-4.342919,1.785038
1421714763612.00,-5.3018246,-2.7580147,3.5738182
1421714763633.00,-4.7910867,-3.4004786,3.8237984
1421714763725.00,-4.202361,-5.1442027,2.7544222
1421714763727.00,-2.9600945,-10.022858,3.3982334
1421714763729.00,-0.27318192,-16.925604,4.9657736
1421714763731.00,3.2837214,-15.394736,0.037871245
1421714763732.00,4.85216,-10.013127,-6.0044637
1421714763752.00,3.7749999,-9.539213,-1.8158739
1421714763772.00,0.72868466,-9.772279,0.08981323
1421714763794.00,-1.1464659,-9.859397,0.45535308
1421714763812.00,-1.6554075,-9.722732,1.4283298
1421714763832.00,-0.78227323,-8.82939,1.597478
1421714763852.00,-1.025218,-8.635692,1.345552
1421714763872.00,-1.6253201,-8.726104,1.2500505
1421714763892.00,-1.4606625,-9.113948,0.42122406
1421714763913.00,-1.1635305,-9.387428,-0.14385086
1421714763932.00,-1.0732682,-9.78605,0.10972183
1421714763953.00,-0.8659493,-9.681268,0.27662477
1421714764020.00,-0.8975336,-9.18954,-0.1540297
1421714764021.00,-1.001717,-8.913963,0.18276992
1421714764022.00,-1.0193802,-9.270971,0.7503896
1421714764032.00,-0.47481263,-9.575887,1.0344987
1421714764053.00,0.35595977,-9.529484,0.8952882
1421714764072.00,0.83855623,-9.585018,0.65114594
1421714764093.00,0.8788225,-9.517059,1.1999048
1421714764113.00,0.61881316,-9.691746,1.2769945
1421714764136.00,0.2481839,-10.004147,-0.03607498
1421714764154.00,0.102836154,-10.543026,-0.5667215
1421714764173.00,0.19309846,-10.587034,0.122595064
1421714764192.00,1.3895603,-11.0950775,0.5828879
1421714764212.00,2.7006838,-12.384497,0.34982255
1421714764232.00,2.9758117,-14.430741,0.6340814
1421714764252.00,1.6425344,-15.692767,-0.68302965
1421714764272.00,-0.47331575,-14.273119,-2.3833437
1421714764337.00,-1.2509487,-12.19035,-2.7596612
1421714764338.00,-0.028291168,-11.237432,-0.39218444
1421714764339.00,0.50744474,-11.39221,1.7025595
1421714764354.00,1.1533515,-12.146192,1.6681311
1421714764373.00,0.93794954,-11.77691,3.1033466
1421714764397.00,0.6132747,-12.0044365,3.1326857
1421714764412.00,0.7851173,-12.008778,1.7833915
1421714764432.00,0.060025178,-11.519445,0.08113129
1421714764452.00,-1.1764036,-11.86822,-0.6800358
1421714764472.00,-1.7973125,-13.263319,2.339036
1421714764492.00,-0.8446934,-14.031671,3.583997
1421714764512.00,1.0163864,-12.899575,0.4674779
