time_milisec,ax,ay,az
1421715322504.00,-0.91519684,3.9806721,9.053623
1421715322534.00,-1.0159373,4.3081913,8.824
1421715322545.00,-1.0922786,4.4969487,8.653954
1421715322565.00,-1.1524534,4.3102865,8.858728
1421715322583.00,-1.0803035,4.2767563,9.077423
1421715322603.00,-1.1008109,4.4801836,8.815468
1421715322622.00,-1.0502161,4.612209,8.79541
1421715322642.00,-1.1135345,4.542903,8.81906
1421715322663.00,-1.0502161,4.4875183,8.933573
1421715322683.00,-0.92552537,4.3372307,8.806936
1421715322702.00,-1.1153307,4.263434,8.93956
1421715322723.00,-1.0389894,4.4300375,8.91097
1421715322743.00,-1.1696677,4.322262,8.915161
1421715322762.00,-1.2028985,4.4947033,9.010662
1421715322783.00,-1.1100916,4.4610233,8.89645
1421715322802.00,-1.0855426,4.337081,8.721613
1421715322822.00,-0.9422905,4.2682242,8.926088
1421715322843.00,-0.9644444,4.3652225,8.970845
1421715322862.00,-1.0341994,4.3743534,8.924142
1421715322883.00,-1.0638378,4.426894,8.876092
1421715322904.00,-1.0762619,4.305796,8.880882
1421715322923.00,-1.0412347,4.384981,8.909922
1421715322943.00,-0.972827,4.504583,8.834478
1421715322963.00,-1.2428654,4.4469523,8.845106
1421715322982.00,-1.1642789,4.603976,8.982222
1421715323002.00,-1.3063334,4.573889,8.895552
1421715323023.00,-1.1371852,4.2719665,8.981623
1421715323042.00,-1.0316547,4.3349853,9.083112
1421715323063.00,-1.1117381,4.321663,9.012908
1421715323082.00,-1.093027,4.4128237,8.924142
1421715323104.00,-1.0509645,4.407285,8.967552
1421715323124.00,-0.88451064,4.379892,8.949589
1421715323142.00,-1.0072554,4.364025,8.868009
1421715323162.00,-0.9681866,4.2737627,8.883576
1421715323184.00,-1.0220746,4.198469,8.861423
1421715323204.00,-0.99977094,4.235143,9.134904
1421715323224.00,-0.9925859,4.3569894,9.075777
1421715323244.00,-0.98794556,4.4402165,8.9900055
1421715323264.00,-0.9624985,4.4734473,8.760682
1421715323284.00,-1.1659255,4.4012976,8.749755
1421715323303.00,-1.1344908,4.4364743,9.123827
1421715323324.00,-1.060844,4.326004,9.14149
1421715323344.00,-1.0388397,4.355942,8.894504
1421715323364.00,-1.1340418,4.3360333,8.88208
1421715323384.00,-0.97746736,4.449497,8.851693
1421715323404.00,-1.1490107,4.4571314,8.7897215
1421715323424.00,-1.2395723,4.4141707,8.82894
1421715323444.00,-1.294059,4.4209065,9.008267
1421715323463.00,-1.131048,4.3893223,9.010962
1421715323483.00,-0.97432387,4.298162,9.027278
1421715323504.00,-1.0225236,4.3652225,8.702304
1421715323524.00,-0.96429473,4.475094,8.825647
1421715323543.00,-0.9277707,4.3179207,8.796457
1421715323564.00,-1.0518626,4.274212,8.929831
1421715323584.00,-0.97118044,4.2772055,8.989856
1421715323603.00,-0.9966275,4.402944,8.931776
1421715323624.00,-1.1243119,4.235592,8.936117
1421715323644.00,-0.98450273,4.204307,8.9690485
1421715323664.00,-1.0870395,4.364175,9.088201
1421715323684.00,-1.0955718,4.373306,8.917256
1421715323703.00,-1.1332933,4.511618,8.811127
1421715323723.00,-1.0728191,4.4051895,8.932674
1421715323744.00,-1.0121951,4.40953,8.9215975
1421715323763.00,-1.0431807,4.3352847,9.070538
1421715323783.00,-1.1130853,4.50593,8.871451
1421715323804.00,-1.1340418,4.364474,8.826245
1421715323824.00,-0.96175003,4.4113264,8.738977
1421715323843.00,-1.0129436,4.4725494,8.895851
1421715323864.00,-1.1614348,4.4080334,8.943152
1421715323884.00,-1.0797048,4.437073,9.150172
1421715323904.00,-0.96953386,4.307293,9.091045
1421715323924.00,-1.1223661,4.383185,8.787027
1421715323944.00,-1.3168117,4.4484496,8.682245
1421715323986.00,-1.0359956,4.4758425,8.7897215
1421715323987.00,-1.1491603,4.4738965,9.044192
1421715324003.00,-1.1020083,4.475543,9.072933
1421715324024.00,-1.0819501,4.5089235,8.817714
1421715324043.00,-1.1521541,4.4867697,8.696166
1421715324062.00,-1.155597,4.531826,8.82445
1421715324082.00,-0.9551637,4.4387197,8.990305
1421715324103.00,-0.9922865,4.3722577,9.043444
1421715324128.00,-0.98285615,4.3554926,9.013805
1421715324142.00,-1.1247611,4.4791355,9.080268
1421715324163.00,-0.99483126,4.4969487,9.134604
1421715324186.00,-0.9713301,4.2915754,8.945847
1421715324204.00,-1.2198133,4.431385,8.883277
1421715324224.00,-1.1165282,4.54425,9.048983
1421715324242.00,-1.1647279,4.477938,8.882229
1421715324263.00,-1.2457095,4.470903,8.856033
1421715324283.00,-1.1247611,4.46267,8.907377
1421715324302.00,-1.2259506,4.2724156,8.817863
1421715324322.00,-1.2061917,4.4569817,8.910371
1421715324345.00,-1.1406281,4.456832,8.912316
1421715324387.00,-0.979563,4.430187,8.667127
1421715324389.00,-1.059347,4.3035507,8.728798
1421715324411.00,-1.069975,4.3153763,8.891061
1421715324424.00,-1.10126,4.3605824,8.934172
1421715324444.00,-0.839604,4.190386,8.944799
1421715324463.00,-0.9783655,4.31373,9.073531
1421715324483.00,-1.0725197,4.4614725,8.9497385
1421715324503.00,-1.0862911,4.456233,8.875493
1421715324526.00,-1.0663824,4.4511437,8.893007
1421715324542.00,-1.0415341,4.3960586,8.850795
1421715324564.00,-1.0943742,4.452192,8.769065
1421715324582.00,-1.0798545,4.4180627,8.819959
1421715324603.00,-1.0464739,4.5436516,8.834029
1421715324622.00,-1.2539424,4.473747,8.932525
1421715324642.00,-1.0957215,4.5445495,8.875343
1421715324663.00,-1.1933185,4.4824286,8.947943
1421715324684.00,-1.0431807,4.4991937,9.008567
1421715324707.00,-0.90277267,4.3516006,9.003028
1421715324724.00,-0.88466036,4.3411226,8.753497
1421715324744.00,-0.9827064,4.304898,8.832683
1421715324762.00,-1.0696756,4.292474,9.0004835
1421715324785.00,-0.9193881,4.2891808,8.9513855
1421715324803.00,-0.9412427,4.3574386,9.0403
1421715324823.00,-1.0779085,4.4511437,8.937614
1421715324844.00,-1.0735675,4.366869,9.028175
1421715324863.00,-1.0720706,4.36642,8.787626
1421715324885.00,-1.0825489,4.359684,9.004525
1421715324903.00,-1.0139914,4.368216,8.996442
1421715324923.00,-0.9397458,4.3685155,8.817265
1421715324943.00,-0.9412427,4.4129734,8.700058
1421715324963.00,-0.9116043,4.420308,8.791518
1421715324982.00,-1.0442286,4.49635,8.979976
1421715325003.00,-0.9834549,4.5114684,8.922196
1421715325024.00,-1.1591895,4.493655,8.936267
1421715325076.00,-0.9903406,4.411626,8.92998
1421715325077.00,-1.0464739,4.454886,8.978929
1421715325082.00,-1.0054592,4.4161167,8.933423
1421715325143.00,-1.0509645,4.4228525,8.708441
1421715325144.00,-1.1648777,4.4632688,8.803044
1421715325153.00,-1.1096425,4.437522,8.865464
1421715325181.00,-0.98450273,4.454736,8.861572
1421715325184.00,-0.9475296,4.418362,8.8702545
1421715325309.00,-0.9912387,4.4191103,9.024583
1421715325310.00,-0.99198717,4.4065366,8.988209
1421715325311.00,-1.0178833,4.30385,8.879535
1421715325312.00,-0.78781176,4.2790017,8.849148
1421715325313.00,-1.0105486,4.2713675,8.97818
1421715325313.00,-1.0234218,4.4047403,8.987909
1421715325346.00,-1.0539583,4.4261456,8.921148
1421715325346.00,-1.0398875,4.2791514,8.913814
1421715325397.00,-0.95531344,4.403842,8.744815
1421715325398.00,-1.0581496,4.4950027,8.8073845
1421715325427.00,-1.1029065,4.4921584,8.964707
1421715325428.00,-1.1734099,4.456682,8.957822
1421715325445.00,-1.0749147,4.4894643,8.897049
1421715325463.00,-0.97851515,4.421206,8.802146
1421715325484.00,-1.2567865,4.5108695,8.929531
1421715325502.00,-1.3087285,4.6128078,8.96381
1421715325577.00,-1.2903168,4.4797344,8.898695
1421715325577.00,-1.2284954,4.5899053,8.82894
1421715325578.00,-1.2612772,4.6397514,8.837024
1421715325598.00,-1.0696756,4.628375,8.813373
1421715325602.00,-1.4663507,4.951853,7.534282
1421715325622.00,-1.2355307,4.674779,8.735235
1421715325644.00,-1.4254857,4.590953,9.423803
1421715325666.00,-1.5754738,4.607718,8.769514
1421715325699.00,-1.5539186,4.6955853,8.936117
1421715325719.00,-1.4371614,4.6092153,9.108109
1421715325723.00,-1.1208692,4.7250743,8.602311
1421715325747.00,-1.2509487,4.7479763,8.591384
1421715325763.00,-1.1289524,4.572092,8.707393
1421715325783.00,-1.0442286,4.471202,8.770861
1421715325803.00,-1.0728191,4.450545,8.764125
1421715325822.00,-1.0080038,4.479884,8.646619
1421715325843.00,-1.0970687,4.445156,8.75694
1421715325863.00,-1.1279045,4.5955935,9.0694895
1421715325885.00,-1.111289,4.7301636,9.1185875
1421715325904.00,-1.1762539,4.6003833,9.018895
1421715325924.00,-1.257984,4.580924,9.138496
1421715325944.00,-1.203647,4.711153,9.058712
1421715325964.00,-1.1761043,4.5743375,8.937764
1421715325984.00,-1.0999128,4.4863205,8.806787
1421715326004.00,-1.1931688,4.4310856,8.788075
1421715326024.00,-1.0731184,4.2312512,8.872499
1421715326045.00,-1.0767109,4.230203,8.790171
1421715326064.00,-0.9529184,4.2099953,8.920999
1421715326085.00,-0.91384965,4.181704,9.038954
1421715326104.00,-0.74485105,4.137995,9.014704
1421715326124.00,-0.79799056,4.191883,8.925489
1421715326144.00,-0.737666,4.23664,8.84346
1421715326164.00,-0.82089293,4.2122407,9.048983
1421715326184.00,-0.8414003,4.321214,9.039851
1421715326204.00,-0.9931847,4.278403,8.933872
1421715326223.00,-0.8424481,4.274062,8.818313
1421715326246.00,-1.0026151,4.2778044,8.8388195
1421715326262.00,-1.027164,4.439917,8.961115
1421715326283.00,-1.017584,4.326453,9.022488
1421715326303.00,-1.1403286,4.48662,8.939111
1421715326323.00,-1.0584489,4.523593,8.6418295
1421715326344.00,-1.305585,4.2349935,7.802225
1421715326364.00,-2.0953426,4.9505053,10.0417185
1421715326385.00,-1.2299923,3.988905,9.805659
1421715326416.00,-0.92836946,4.0064187,8.707542
1421715326438.00,-1.2533437,4.458778,8.400381
1421715326446.00,-1.411864,4.576583,8.732242
1421715326480.00,-1.2177178,4.5036845,9.07398
1421715326483.00,-1.137335,4.522096,9.0358095
1421715326504.00,-1.1109897,4.4388695,8.495134
1421715326523.00,-0.96264815,4.7181883,8.268805
1421715326543.00,-1.031505,4.538412,8.476573
1421715326565.00,-0.9648935,4.201463,9.001082
1421715326583.00,-1.0798545,4.1132965,9.144035
1421715326603.00,-0.96938413,4.3315425,8.840616
1421715326623.00,-1.135838,4.5599675,8.797505
1421715326642.00,-1.1174263,4.5192523,8.900641
1421715326663.00,-0.975222,4.4756927,8.950188
1421715326684.00,-1.1566447,4.5792775,8.924741
1421715326703.00,-1.1404784,4.515959,8.857381
1421715326724.00,-0.9939331,4.540508,8.811875
1421715326743.00,-1.1508069,4.3912683,8.934919
1421715326770.00,-1.1325449,4.419709,8.899144
1421715326786.00,-1.2403207,4.389472,8.874296
1421715326809.00,-1.0669812,4.378395,8.934321
1421715326823.00,-1.0304571,4.4480004,8.94435
1421715326842.00,-1.0931767,4.515959,8.761131
1421715326863.00,-1.2335848,4.4243493,8.874596
1421715326913.00,-1.135838,4.454736,9.061257
1421715326914.00,-1.2748989,4.3923163,8.888067
1421715326933.00,-1.212778,4.4230022,8.60276
1421715326957.00,-1.2383748,4.5955935,8.698711
1421715326963.00,-1.3425581,4.6099634,8.973689
1421715326983.00,-1.2395723,4.4655137,9.003327
1421715327003.00,-1.4078224,4.791536,8.7174225
1421715327037.00,-1.5130535,4.7003756,8.606353
1421715327042.00,-1.5091617,4.6199927,8.866512
1421715327071.00,-1.4492862,4.705315,8.395592
1421715327082.00,-1.6643889,4.635261,9.087153
1421715327125.00,-1.4846127,4.5930486,8.845705
1421715327125.00,-1.5341597,4.7800097,8.608748
1421715327180.00,-1.4742842,4.898114,8.8966
1421715327181.00,-1.2720548,4.682413,8.982521
1421715327197.00,-1.196911,4.690496,8.831934
1421715327204.00,-1.0759625,4.571943,8.915161
1421715327228.00,-1.1000624,4.3656716,8.834478
1421715327264.00,-0.929567,4.352499,9.001232
1421715327265.00,-1.0951227,4.320316,8.941057
1421715327284.00,-1.0268646,4.4014473,8.8669615
1421715327302.00,-1.0187814,4.441863,8.644074
1421715327326.00,-1.1538006,4.6186457,8.690329
1421715327343.00,-1.0886861,4.6331654,8.735235
1421715327363.00,-1.1907737,4.5455976,8.86741
1421715327383.00,-1.1365864,4.550687,8.916657
1421715327403.00,-1.040636,4.4411144,8.956775
1421715327423.00,-1.0237212,4.531227,9.034912
1421715327445.00,-1.0198293,4.366121,9.0325165
1421715327475.00,-1.149759,4.3604326,8.944051
1421715327483.00,-1.0499167,4.485273,8.846903
1421715327503.00,-1.0639874,4.467011,8.792267
1421715327523.00,-1.0888357,4.4686575,8.577763
1421715327543.00,-0.9285191,4.3328896,8.779393
1421715327563.00,-1.0344987,4.359684,8.890462
1421715327583.00,-0.9873468,4.482279,8.938213
1421715327603.00,-1.0072554,4.559219,8.965007
1421715327623.00,-1.027164,4.4752436,8.971145
1421715327643.00,-0.96414506,4.529281,8.970845
1421715327664.00,-1.1193722,4.490512,9.020093
1421715327685.00,-1.0895842,4.4875183,8.989856
1421715327703.00,-0.9566606,4.467909,9.066795
1421715327724.00,-1.108894,4.39052,8.834928
1421715327743.00,-0.99183744,4.3695636,8.841663
1421715327763.00,-1.0538086,4.4439588,8.953331
1421715327786.00,-0.99183744,4.334536,8.851693
1421715327805.00,-0.88690567,4.2550516,8.888067
1421715327823.00,-1.1217673,4.5071273,8.957373
1421715327846.00,-0.9780661,4.351301,8.880583
1421715327863.00,-0.98959213,4.408183,8.857531
1421715327883.00,-1.1909235,4.429589,8.913215
1421715327903.00,-1.0264156,4.37585,8.937914
1421715327923.00,-1.1313473,4.4132724,8.95887
1421715327944.00,-1.1407777,4.502637,8.755293
1421715327964.00,-1.1389815,4.4259963,8.657397
1421715327985.00,-1.1433225,4.3676176,8.77146
1421715328004.00,-1.1686199,4.38094,9.027128
1421715328024.00,-1.1837384,4.4848237,9.077573
1421715328045.00,-1.1416758,4.4721003,8.920699
1421715328065.00,-1.1265574,4.4935055,8.870853
1421715328083.00,-1.1918216,4.444258,8.96381
1421715328103.00,-1.0692265,4.412524,8.868907
1421715328123.00,-1.0846444,4.456832,9.071286
1421715328143.00,-1.0556048,4.4454556,8.93971
1421715328165.00,-1.0678793,4.5283833,8.836275
1421715328185.00,-0.9916878,4.439019,8.855585
1421715328204.00,-1.0800041,4.2544527,8.867559
1421715328225.00,-0.9219328,4.2227187,8.938662
1421715328245.00,-0.959355,4.339027,8.805738
1421715328266.00,-0.9539662,4.358337,8.734786
1421715328284.00,-1.0511142,4.454736,8.972192
1421715328306.00,-0.96938413,4.4387197,9.168883
1421715328324.00,-1.1433225,4.4191103,8.964857
1421715328345.00,-1.041085,4.4099793,9.033265
1421715328365.00,-1.088237,4.4809318,9.078771
1421715328386.00,-0.97312635,4.4493475,8.973839
1421715328405.00,-1.0322534,4.538113,9.0406
1421715328425.00,-1.0428814,4.459377,9.078471
1421715328445.00,-1.1091934,4.41926,9.156159
1421715328464.00,-1.0415341,4.4297385,8.93971
1421715328485.00,-1.0936258,4.5288324,8.851244
1421715328504.00,-1.0330019,4.342919,8.878487
1421715328526.00,-0.9039702,4.474196,8.860075
1421715328545.00,-1.0689272,4.360283,8.937764
1421715328565.00,-0.9463321,4.285289,8.8757925
1421715328585.00,-0.93660235,4.3276505,8.814271
1421715328605.00,-0.8904982,4.248615,8.970097
1421715328624.00,-0.99019086,4.311784,9.116043
1421715328645.00,-0.98704743,4.377048,9.015452
1421715328665.00,-0.9339079,4.5879593,9.021739
1421715328684.00,-0.9264235,4.476591,8.966354
1421715328703.00,-1.0985656,4.5994854,8.897347
1421715328725.00,-1.1511062,4.542903,8.944799
1421715328743.00,-1.0282118,4.4932065,9.094338
1421715328763.00,-1.0135423,4.327501,9.074579
1421715328784.00,-1.0157876,4.4230022,8.897647
1421715328804.00,-1.006956,4.4970984,8.664433
1421715328823.00,-0.97207856,4.415967,8.872799
1421715328843.00,-1.0000703,4.4538383,8.962912
1421715328864.00,-0.81385756,4.4397674,8.91067
1421715328885.00,-0.9313632,4.4369235,8.903186
1421715328904.00,-0.96579164,4.492907,9.025032
1421715328923.00,-0.8370593,4.521647,9.182954
1421715328943.00,-0.87133807,4.40968,8.947793
1421715328964.00,-0.9116043,4.3249564,8.999885
1421715328984.00,-1.0166858,4.3897715,8.961115
1421715329005.00,-1.113684,4.6375065,8.982072
1421715329025.00,-1.0452763,4.4970984,8.987909
1421715329043.00,-0.87807405,4.372557,9.035959
1421715329063.00,-0.9840537,4.365372,8.9265375
1421715329083.00,-1.0544074,4.4762917,8.996292
1421715329143.00,-1.0111473,4.4732976,8.989556
1421715329145.00,-1.0705737,4.5560756,9.082663
1421715329145.00,-0.9503737,4.557273,8.904084
1421715329256.00,-0.9104068,4.699178,8.759634
1421715329256.00,-0.83556247,4.620741,8.8774395
1421715329257.00,-0.9000783,4.471801,8.930729
1421715329258.00,-0.9383986,4.475543,9.009614
1421715329259.00,-1.002166,4.3786945,9.05976
1421715329263.00,-1.0481204,4.335584,9.116043
1421715329285.00,-0.9855505,4.46267,9.09344
1421715329380.00,-1.0006691,4.418661,8.981024
1421715329381.00,-0.91849,4.5860133,8.8829775
1421715329383.00,-0.9794133,4.5162582,8.731792
1421715329383.00,-1.0166858,4.5002418,8.761431
1421715329384.00,-0.95366687,4.4758425,8.802745
1421715329406.00,-0.81730044,4.5521836,8.706644
1421715329502.00,-0.99468154,4.8407836,8.830437
1421715329503.00,-1.0030642,4.8150373,8.523275
1421715329503.00,-0.86190766,4.79453,8.465197
1421715329504.00,-0.7048842,4.7166915,8.389304
1421715329505.00,-0.27812165,4.203858,8.024663
1421715329528.00,-0.29578492,4.1496706,7.8751235
1421715329542.00,-0.29608428,3.9516325,7.7790236
1421715329565.00,-0.7111711,4.013454,7.8231816
1421715329585.00,-0.82089293,3.522475,9.780361
1421715329771.00,-0.5080435,3.9652543,9.644894
1421715329774.00,-0.43364823,4.2767563,9.362281
1421715329776.00,-0.30326936,4.1263194,9.016351
1421715329778.00,-0.14879058,4.503984,9.004226
1421715329778.00,-0.030686188,4.1936793,8.840916
1421715329779.00,-0.011975098,4.1011715,9.068442
1421715329780.00,-0.45714936,3.7001555,10.5201235
1421715329782.00,-1.0063573,4.5032353,8.795859
1421715329786.00,-0.3568579,3.52487,8.638836
1421715329787.00,-0.2612068,3.3220417,9.956395
1421715329827.00,-0.9032217,3.9772294,10.869646
1421715329827.00,-0.7030879,4.3569894,10.619966
1421715329860.00,-0.44113266,3.3997302,9.541458
1421715329865.00,-0.21779709,3.3967364,8.518037
1421715329883.00,-0.37287462,4.004922,8.7946615
1421715329903.00,-0.9009764,4.148024,7.906708
1421715329922.00,-0.75562865,3.7534447,9.386082
1421715330479.00,-0.26045838,3.5711238,9.29537
1421715330493.00,-0.52256334,3.6256106,10.29095
1421715330498.00,-1.5112573,3.4757721,9.972562
1421715330499.00,-1.683549,4.5050316,9.507329
1421715330504.00,-1.0044113,3.756139,10.274334
1421715330513.00,-0.24189697,3.2229478,10.068363
1421715330514.00,-1.0785072,3.7003052,9.551638
1421715330515.00,-1.4422508,4.3502536,9.016201
1421715330516.00,-1.1835887,4.9904723,8.902587
1421715330516.00,-0.8783734,3.8471498,8.840916
1421715330517.00,-0.3023712,2.4002585,8.787776
1421715330518.00,0.2559677,1.8556911,10.150542
1421715330519.00,-1.3169614,2.3022125,9.63202
1421715330541.00,-2.0618124,4.4239006,8.319999
1421715330544.00,-2.1640499,4.541406,7.9664335
1421715330545.00,-1.1948154,5.277426,9.568103
1421715330547.00,0.71162015,1.7997075,7.560777
1421715330606.00,-0.49337402,2.5906627,7.286997
1421715330606.00,-0.025596771,4.8214736,10.193203
1421715330607.00,-1.7118402,5.0192127,9.6107645
1421715330642.00,-1.6351995,3.9498363,8.757539
1421715330643.00,-1.1654763,4.1796083,8.861572
1421715330817.00,-0.13427079,3.8119729,8.928333
1421715330817.00,0.28874955,3.665278,9.173674
1421715330819.00,-0.39727387,3.8751416,9.169033
1421715330835.00,-0.63333297,3.6709661,9.342373
1421715330836.00,-0.497715,3.0563443,9.345516
1421715330837.00,-0.7577243,3.282075,9.4788885
1421715330839.00,-0.29937744,2.9437783,11.041788
1421715330840.00,-0.38978943,3.2653098,9.95924
1421715330842.00,-0.7677534,2.8967762,9.471105
1421715330856.00,-1.2930112,3.6872823,8.430019
1421715330880.00,-0.74544984,4.137696,9.129664
1421715330983.00,-0.002694397,3.6881804,9.365873
1421715330984.00,-0.3305127,3.4658926,8.778046
1421715330984.00,-1.9083815,3.155139,8.162826
1421715330985.00,-1.1514057,2.762206,8.445887
1421715330987.00,-0.041763153,2.6375153,10.864108
1421715330988.00,-0.3941304,3.1998959,11.702515
1421715331021.00,-0.034129027,3.274291,8.874596
1421715331025.00,0.51747394,3.92409,7.5303903
1421715331148.00,-0.010478211,4.0324645,11.528726
1421715331149.00,-0.9566606,3.7410204,11.315269
1421715331150.00,-0.89394104,3.4949322,10.569671
1421715331151.00,-1.3418097,3.5281632,10.120305
1421715331151.00,-0.818947,2.996319,9.595496
1421715331153.00,-0.7415579,3.3922458,8.991652
1421715331184.00,-0.2188449,3.4362543,9.069191
1421715331186.00,-0.33605117,3.342549,8.799003
1421715331222.00,-0.49337402,3.285368,8.866213
1421715331225.00,-0.38559815,3.3880546,9.3911705
1421715331243.00,0.059426423,3.3450937,9.306597
1421715331352.00,1.1105406,3.5091527,8.573721
1421715331353.00,0.69635195,3.7351828,8.309969
1421715331354.00,0.40266266,3.5512152,8.366102
1421715331355.00,-0.104632415,3.146906,9.638307
1421715331355.00,0.07634125,2.9412336,9.646989
1421715331379.00,0.80772036,3.4874477,9.285491
1421715331383.00,0.95441526,3.5284624,9.400452
1421715331403.00,0.5664221,3.5444791,9.34851
1421715331429.00,0.92582476,3.3983831,9.75716
1421715331443.00,0.57899594,3.1234047,9.965227
1421715331463.00,0.19938537,2.9927266,10.2072735
1421715331483.00,0.66506696,3.4232314,9.702972
1421715331503.00,0.818947,3.5465748,8.932824
1421715331526.00,0.81954575,3.3163536,8.952284
1421715331543.00,0.5149292,2.9768596,9.541009
1421715331660.00,0.46897477,3.0509555,9.897418
1421715331661.00,0.24384293,3.1193633,9.52634
1421715331664.00,0.26794282,3.204686,8.13648
1421715331665.00,0.58468413,3.1120286,7.521409
1421715331665.00,0.6427634,3.0922697,8.04487
1421715331666.00,1.773063,1.6486716,11.535611
1421715331697.00,0.38125718,2.4486082,10.9278755
1421715331703.00,-0.47286665,2.7351122,10.294692
1421715331732.00,-0.7557784,3.0576916,10.184521
1421715331745.00,0.021106109,3.1413674,9.717492
1421715331763.00,1.2263997,3.1916628,8.6716175
1421715331786.00,1.6751665,3.432512,8.493937
1421715331804.00,1.8392253,3.7931123,7.8724294
1421715331823.00,1.8184186,3.8814285,6.682554
1421715331842.00,1.6143929,3.7685633,6.9145713
1421715331866.00,1.8529967,3.85194,4.889582
1421715331984.00,2.839595,4.390969,4.3080416
1421715331985.00,2.584675,5.4971685,4.2767563
1421715331986.00,3.3569193,5.1692004,4.935237
1421715331993.00,3.7158728,4.8653326,6.4220953
1421715331994.00,3.5579512,5.079986,7.060817
1421715331995.00,3.5290613,4.896917,8.28093
1421715332025.00,3.3395553,4.5050316,10.000255
1421715332026.00,3.22669,4.113147,10.921887
1421715332045.00,2.8731253,3.6326458,11.210937
1421715332074.00,2.5291407,3.352728,11.001372
1421715332086.00,2.3023622,3.1244526,9.926907
1421715332136.00,2.1189935,2.9759614,9.751022
1421715332137.00,2.37077,2.5987458,9.999805
1421715332144.00,2.3857388,2.4450157,9.933643
1421715332166.00,2.7065217,1.4988332,9.649384
1421715332183.00,2.9359946,0.7445517,8.736432
1421715332203.00,3.7443137,0.352966,7.149882
1421715332348.00,4.1498203,0.9077124,7.0533323
1421715332349.00,3.4835558,0.9927356,7.3884854
1421715332350.00,3.8217027,0.8238867,7.807464
1421715332351.00,4.6033773,0.76670563,6.993158
1421715332353.00,5.0365763,0.45191026,6.574628
1421715332354.00,4.1366477,1.017584,6.1962147
1421715332355.00,2.9774582,0.72075117,6.3015957
1421715332371.00,3.155139,0.44083327,6.4673014
1421715332732.00,4.3420205,0.8273296,5.928721
1421715332733.00,4.1598496,0.852627,6.293662
1421715332734.00,2.728077,0.38290375,6.6964746
1421715332735.00,3.7464094,-0.55803955,6.786587
1421715332737.00,6.1305017,-0.7969428,6.3785357
1421715332741.00,7.3534584,-1.059347,7.4293504
1421715332745.00,8.260273,-1.38492,8.618628
1421715332745.00,10.003248,-1.2319381,7.9573026
1421715332746.00,11.438912,-0.9780661,5.846093
1421715332747.00,11.981085,-1.3139676,5.2855086
1421715332748.00,11.38248,-1.3837225,5.718259
1421715332749.00,11.133099,-1.4639556,5.331613
1421715332802.00,11.215278,-1.3220508,4.3391767
1421715332803.00,10.400971,-2.601141,5.050198
1421715332817.00,9.515113,-2.658771,4.7101054
1421715332818.00,8.631351,-3.3971856,4.525539
1421715332819.00,8.105195,-3.2347732,4.9744554
1421715332958.00,8.504864,-3.143014,5.356611
1421715332959.00,8.779842,-3.1496003,4.763694
1421715332962.00,8.81472,-3.1687605,3.8151164
1421715332964.00,8.512348,-3.4223332,2.5975485
1421715332965.00,8.129146,-3.830684,1.5208374
1421715332966.00,8.023465,-4.004323,1.8438656
1421715332967.00,7.592661,-3.2039373,2.834805
1421715332969.00,7.18416,-2.8815079,2.9380903
1421715332994.00,7.013815,-2.3158343,2.1369562
1421715333006.00,7.7094183,-2.1561162,2.3960674
1421715333057.00,7.927814,-2.088457,2.2483246
1421715333057.00,8.074808,-2.2817051,2.5797355
1421715333156.00,8.470137,-2.4041505,3.565735
1421715333160.00,7.8146496,-1.7094452,4.9418235
1421715333161.00,8.960517,-1.8923649,3.8218524
1421715333165.00,9.631122,-2.9377909,2.642006
1421715333166.00,8.811875,-2.695295,3.0725107
1421715333172.00,8.395292,-2.6211991,5.178182
1421715333245.00,8.910371,-2.696792,7.1085677
1421715333246.00,8.960815,-2.5839267,6.0131454
1421715333247.00,8.126152,-2.376907,5.5119877
1421715333248.00,7.4893756,-2.8671377,6.037096
1421715333271.00,8.236772,-3.1501992,5.665119
1421715333336.00,8.513696,-2.9331505,5.0888176
1421715333338.00,8.360115,-2.2951772,5.2654505
1421715333338.00,8.789272,-3.0740075,5.495971
1421715333350.00,9.04075,-3.9857616,4.457281
1421715333363.00,9.316177,-4.441863,2.0116668
1421715333384.00,10.018816,-3.9353166,0.13906083
1421715333403.00,10.080338,-3.69791,-0.05478607
1421715333424.00,9.657617,-3.4672399,0.52825147
1421715333444.00,9.340127,-3.924988,1.493594
1421715333464.00,8.570278,-3.2379167,1.8212627
1421715333485.00,8.51624,-3.838917,2.6747878
1421715333503.00,7.642358,-3.5838473,3.2639625
1421715333578.00,8.432565,-2.982398,5.450765
1421715333579.00,10.178534,-1.669628,3.7749999
1421715333581.00,10.423874,-3.1341825,2.8473787
1421715333585.00,10.1468,-3.3867073,0.86729646
1421715333604.00,8.175549,-1.0611434,-1.1659255
1421715333623.00,9.072783,-2.5499473,-1.8600321
1421715333643.00,8.213719,-2.45729,0.26105714
1421715333664.00,6.364465,-1.5256275,0.52855086
1421715333683.00,6.610254,-2.0410056,-0.524659
1421715333704.00,7.317533,-2.2135968,-0.46957353
1421715333723.00,6.955885,-2.7692413,0.5173242
1421715333743.00,6.6997676,-3.7953575,0.5984555
1421715333763.00,5.7357726,-2.7556198,-0.064815216
1421715333783.00,5.9089622,-2.0678,-2.381847
1421715333803.00,5.5119877,-1.5218853,-3.9815702
1421715333823.00,5.230573,-5.2650013,0.70967424
1421715333843.00,6.875652,-6.5961833,0.9514215
1421715333863.00,7.9959226,-7.4447684,0.30087432
1421715333919.00,9.234746,-8.240364,1.3009447
1421715333920.00,5.588179,-6.6584535,-0.929567
1421715333923.00,4.36148,-5.4893847,0.7867639
1421715333961.00,2.8235784,-5.3600535,-0.35341507
1421715333965.00,4.056864,-7.861053,1.409469
1421715333985.00,7.6669064,-12.27223,1.4061759
1421715334003.00,6.649622,-15.345339,-0.060174868
1421715334027.00,4.685856,-14.930402,-0.75143737
1421715334044.00,5.733078,-9.530231,-0.56208116
1421715334063.00,3.942801,-8.272099,-1.219514
1421715334084.00,4.63092,-6.4104195,-0.086071014
1421715334103.00,4.550537,-7.9338017,1.1647279
1421715334123.00,3.618575,-9.090446,0.3983217
1421715334143.00,2.9826975,-9.317973,-0.6502478
1421715334163.00,3.6312988,-8.706046,-0.9066646
1421715334222.00,3.8615198,-9.037606,-0.5369334
1421715334223.00,3.453618,-9.29552,-0.028740235
1421715334224.00,3.0061986,-8.928782,0.25521928
1421715334245.00,2.5153692,2.7741811,0.11720627
1421715334264.00,2.8154953,2.9123437,-0.50070876
1421715334284.00,3.0340407,2.5385711,0.79544586
1421715334303.00,0.8402028,0.90846086,1.1916718
1421715334323.00,-2.3752606,-2.152374,3.987857
1421715334350.00,-3.9459443,-8.96366,0.5161267
1421715334365.00,-3.8702018,-7.1061726,-0.16795075
1421715334386.00,-3.7134778,-5.909561,1.3000466
1421715334405.00,-2.950664,-5.202282,0.9461824
1421715334423.00,-1.4961388,-4.9690666,-0.48783553
1421715334444.00,-11.329639,-15.201339,4.3921666
1421715334463.00,-12.778028,-18.98547,6.8865795
1421715334483.00,-3.5822008,-1.6347505,-12.546459
1421715334538.00,-1.7422271,1.3189073,-3.9824684
1421715334539.00,-2.4963589,-7.5476046,2.3593936
1421715334545.00,-4.8454237,-12.679234,2.4373815
1421715334570.00,-3.522924,-7.4414754,1.0883867
1421715334583.00,-2.6677523,-9.203162,1.8450632
1421715334603.00,-2.91414,-9.298813,1.434467
1421715334623.00,-2.9812005,-9.374705,0.5730084
1421715334644.00,-3.3667986,-9.4226055,-0.52346146
1421715334664.00,-3.3662,-8.958271,-0.75592804
1421715334684.00,-3.3018339,-9.254505,-0.016465759
1421715334703.00,-3.6121385,-9.329799,0.5875282
1421715334724.00,-3.0846355,-8.810529,1.3626164
1421715334744.00,-2.8906388,-9.338929,0.9096584
1421715334766.00,-2.724784,-9.145981,0.77987826
1421715334783.00,-2.8779154,-9.412277,0.8373587
1421715334804.00,-3.187771,-9.442514,0.91609496
1421715334866.00,-3.2606695,-9.451046,1.0427316
1421715334867.00,-3.1301408,-9.269923,1.3030403
1421715334868.00,-2.3945704,-8.841663,1.4244379
1421715334888.00,-1.9426602,-9.297017,1.0481204
1421715334903.00,-2.360741,-10.0501,1.4159056
1421715334923.00,-2.584675,-9.471853,1.5163467
1421715334945.00,-1.662892,-9.291179,1.4337186
1421715334964.00,-1.4778768,-9.846824,0.6912625
1421715334987.00,-2.3068528,-9.368119,1.0654843
1421715335004.00,-2.8449838,-9.294322,1.5385007
1421715335024.00,-2.91414,-9.371712,1.2406201
1421715335044.00,-3.432063,-9.454788,0.9397458
1421715335063.00,-3.304678,-9.26693,0.5680687
1421715335083.00,-2.6720934,-8.849148,0.34742752
1421715335109.00,-2.43813,-9.229657,0.6210585
1421715335123.00,-2.700235,-9.195528,0.99078965
1421715335185.00,-2.992427,-9.523795,1.0204281
1421715335186.00,-3.251688,-9.543704,0.75173676
1421715335190.00,-3.3611104,-9.676927,0.34293687
1421715335218.00,-3.5877392,-9.579928,0.2893483
1421715335223.00,-3.396886,-9.361233,0.98959213
1421715335243.00,-3.1720536,-9.18924,1.5820601
1421715335263.00,-3.0894256,-9.225765,1.5617024
1421715335284.00,-3.0409265,-9.2134905,0.8279283
1421715335303.00,-3.2187567,-9.392069,0.445773
1421715335326.00,-3.9426513,-9.322165,0.8066725
1421715335343.00,-3.7760477,-9.398057,0.9786649
1421715335363.00,-2.9505143,-9.0446415,0.5641768
1421715335383.00,-2.4098387,-8.966953,0.57824755
1421715335403.00,-2.4920177,-9.512269,0.73152876
1421715335424.00,-2.0933967,-9.423504,0.7496411
1421715335445.00,-2.8036697,-9.442664,0.29368928
1421715335467.00,-3.0289512,-9.698032,0.6709049
1421715335535.00,-3.517685,-9.946067,0.3927832
1421715335536.00,-3.3054264,-9.538165,0.36449203
1421715335537.00,-3.411855,-9.3872795,0.3302133
1421715335544.00,-3.52487,-9.936487,0.4617897
1421715335563.00,-3.7559893,-10.411,-0.01167572
1421715335583.00,-4.014801,-10.987302,-1.5793657
1421715335603.00,-3.6663258,-11.245515,-0.9937834
1421715335624.00,-3.7889209,-12.324771,0.06436615
1421715335644.00,-4.871769,-11.918216,0.015118561
1421715335665.00,-2.8948302,-9.052575,1.2557387
1421715335683.00,0.44262955,-3.4462833,-0.07125183
1421715335704.00,-0.8680449,-1.7922231,-0.033679962
1421715335724.00,-2.1800666,-4.1896377,0.011975098
1421715335744.00,-3.5140924,-7.79504,0.40251297
1421715335764.00,-4.031716,-8.766819,0.701591
1421715335783.00,-4.244723,-9.480236,0.25686586
1421715335853.00,-4.5321255,-10.816507,-0.26614654
1421715335854.00,-5.1994376,-12.340038,0.21644989
1421715335855.00,-5.6899676,-11.029215,0.22917344
1421715335863.00,-5.0880694,-8.485703,0.7268884
1421715335886.00,-4.334387,-8.039782,0.5962102
1421715335904.00,-3.653752,-8.971594,1.2952565
1421715335924.00,-2.8918364,-9.437425,1.4852115
1421715335944.00,-2.7255323,-10.070159,0.746797
1421715335963.00,-2.9216244,-8.720566,0.16420853
1421715335984.00,-3.465294,-8.918754,0.8728349
1421715336004.00,-3.341651,-8.923693,1.2751982
1421715336025.00,-2.8984227,-9.20855,0.58618104
1421715336045.00,-2.0874093,-9.679321,0.7658075
1421715336064.00,-1.8895208,-9.928554,1.115181
1421715336083.00,-1.9785855,-9.744736,0.93630296
1421715336104.00,-2.3908281,-9.55044,0.60354495
1421715336179.00,-2.9111462,-9.017098,0.6116281
1421715336180.00,-3.8462517,-9.472752,0.5932164
1421715336181.00,-3.3816178,-9.203761,0.24998017
1421715336192.00,-2.1968317,-8.931926,-0.21525238
1421715336204.00,-1.375789,-9.867929,0.22917344
1421715336224.00,-1.4882053,-10.088571,0.67928743
1421715336244.00,-2.4502547,-9.87242,0.76820254
1421715336264.00,-2.5491989,-9.682615,1.0502161
1421715336285.00,-2.0823197,-9.340127,1.4730867
1421715336306.00,-2.063908,-9.25705,1.737437
1421715336324.00,-2.1275258,-9.047935,1.3880635
1421715336344.00,-2.3369403,-9.2818985,0.751138
1421715336365.00,-2.7053242,-9.428892,0.55893767
1421715336384.00,-3.323389,-9.355695,0.484243
1421715336408.00,-3.855233,-9.175619,0.5053491
1421715336424.00,-3.8044884,-9.106314,0.20013382
1421715336443.00,-3.211871,-9.201815,0.123193815
1421715336501.00,-2.517016,-9.639355,0.24519013
1421715336503.00,-2.2623954,-9.889035,0.59441394
1421715336504.00,-2.2121,-9.872271,0.545316
1421715336524.00,-2.3355932,-9.863139,0.9045689
1421715336543.00,-2.5060885,-9.698332,1.1886781
1421715336563.00,-2.8602521,-9.334739,1.0416838
1421715336584.00,-3.185825,-9.165441,0.8096663
1421715336604.00,-3.7958066,-8.861872,0.9466315
1421715336623.00,-4.183051,-8.549471,1.311872
1421715336644.00,-4.4325824,-8.915161,1.2051439
1421715336664.00,-4.2328978,-9.301059,0.89738387
1421715336684.00,-3.9601648,-9.182505,1.0054592
1421715336704.00,-3.7911663,-8.912018,1.079555
1421715336723.00,-3.8002973,-8.865464,1.1871812
1421715336743.00,-3.7583845,-8.832832,1.2624747
1421715336764.00,-3.605702,-8.792565,0.96683943
1421715336784.00,-3.650908,-9.04539,0.9472302
1421715336841.00,-3.5829492,-9.067694,0.9292676
1421715336842.00,-3.470533,-9.101224,1.0259665
1421715336853.00,-3.286266,-9.101074,1.0011182
1421715336868.00,-3.1320868,-9.044192,0.7324269
1421715336884.00,-3.127147,-9.179511,0.5272037
1421715336904.00,-3.4828074,-9.27591,0.56028485
1421715336923.00,-3.5408866,-9.156609,0.34218842
1421715336948.00,-3.3009357,-8.924741,0.21435425
1421715336964.00,-2.937192,-9.002878,0.23126908
1421715336984.00,-3.0076954,-9.181008,0.50235534
1421715337004.00,-3.4784665,-9.195378,0.5562433
1421715337029.00,-3.760031,-9.166339,0.3266208
1421715337044.00,-4.095034,-9.30989,-0.012573852
1421715337065.00,-3.9833665,-9.441466,0.2944377
1421715337084.00,-4.0513253,-9.260792,0.56851774
1421715337151.00,-4.162095,-9.019644,0.7009923
1421715337151.00,-3.975433,-8.89151,0.79679304
1421715337152.00,-3.865861,-8.798104,0.8716374
1421715337164.00,-3.6714153,-8.729846,0.6976991
1421715337184.00,-3.5838473,-8.631202,0.8893007
1421715337204.00,-3.7285964,-8.857231,1.011746
1421715337224.00,-3.8435574,-8.930429,1.0120454
1421715337244.00,-3.6304007,-8.981772,0.7393126
1421715337264.00,-3.0475128,-8.979228,0.72015244
1421715337284.00,-2.871778,-9.076226,0.7450008
1421715337304.00,-3.3239877,-9.326655,0.5704637
1421715337324.00,-3.7752993,-9.5351715,0.22917344
1421715337344.00,-3.6711159,-9.539513,-0.13457017
1421715337365.00,-3.3334181,-9.7658415,0.019758912
1421715337384.00,-2.9900322,-9.693393,0.082628176
1421715337404.00,-2.9563522,-9.515412,0.03757187
1421715337423.00,-3.112178,-9.337882,0.20118164
1421715337494.00,-2.842589,-9.402996,0.4593947
1421715337495.00,-2.6608667,-9.47814,0.404908
1421715337495.00,-2.4297473,-9.655222,0.25506958
1421715337508.00,-2.5830286,-9.621243,-0.022303618
1421715337524.00,-2.9071047,-9.744137,-0.25267455
1421715337544.00,-3.5170863,-9.673334,-0.31629226
1421715337564.00,-3.7284467,-9.82452,-0.5990543
1421715337584.00,-3.4757721,-9.852511,-0.9852512
1421715337604.00,-3.5841467,-9.880354,-1.4534775
1421715337624.00,-4.018693,-9.97855,-2.2007236
1421715337644.00,-4.295767,-10.522368,-3.4765205
1421715337664.00,-4.11644,-11.352542,-4.187542
1421715337684.00,-3.2924035,-12.223282,-4.398603
1421715337704.00,-3.53445,-12.934902,-4.9277525
1421715337724.00,-5.0421147,-11.876003,-2.79873
1421715337778.00,-4.5934978,-11.551179,-0.556842
1421715337779.00,-3.2105236,-11.219319,-0.73467225
1421715337792.00,-1.2394226,-12.196038,-2.1674926
1421715337804.00,-0.73841447,-12.611724,-3.0237122
1421715337824.00,-1.6847465,-11.220218,-2.1318667
1421715337844.00,-2.4719596,-9.491313,-1.6539106
1421715337864.00,-2.9084518,-8.258327,-2.2698798
1421715337885.00,-3.421435,-7.147786,-3.2813265
1421715337905.00,-3.5208285,-6.9043922,-3.8267922
1421715337930.00,-4.1555085,-6.5366073,-4.0001316
1421715337945.00,-4.112997,-6.2502527,-4.0689883
1421715337965.00,-3.8983433,-5.9909916,-4.3884244
1421715337984.00,-3.6577935,-5.105433,-4.123625
1421715338004.00,-3.5618432,-4.2887316,-4.123625
1421715338024.00,-3.4634976,-4.0945854,-4.3697133
1421715338046.00,-3.376828,-4.072282,-4.604275
1421715338107.00,-3.1234047,-3.6817439,-4.6421466
1421715338108.00,-3.0728102,-3.1070888,-4.9859815
1421715338109.00,-3.2913556,-2.6330247,-5.48699
1421715338124.00,-3.19795,-2.4360342,-5.6886206
1421715338144.00,-2.941084,-2.8473787,-6.073021
1421715338164.00,-2.5514443,-3.5730698,-6.794371
1421715338184.00,-2.1228855,-4.542903,-7.0316277
1421715338204.00,-1.9907103,-4.624334,-6.810088
1421715338224.00,-2.4954607,-4.418811,-6.768774
1421715338244.00,-2.9990134,-4.133055,-8.40592
1421715338264.00,-4.2460704,-7.012018,-10.542128
1421715338286.00,-5.013973,-11.05092,-11.128907
1421715338304.00,-2.2263203,-8.617579,-8.053103
1421715338324.00,-2.213447,-4.6919928,-4.882547
1421715338344.00,-4.008215,-4.6517267,-4.4417133
1421715338366.00,-3.2039373,-8.532706,-6.0424848
1421715338385.00,-3.9833665,-10.932516,-5.988447
1421715338453.00,-5.227729,-10.013127,-6.295758
1421715338454.00,-5.197192,-8.667875,-6.199658
1421715338455.00,-4.3545947,-7.796537,-5.1022897
1421715338466.00,-3.8161643,-7.8207865,-4.0493793
1421715338487.00,-3.3864079,-8.697364,-3.6467166
1421715338504.00,-3.2765365,-9.577683,-3.0460157
1421715338524.00,-2.924169,-10.047706,-2.9220736
1421715338544.00,-2.4316933,-9.90116,-2.7066715
1421715338564.00,-1.888922,-9.373657,-1.8844314
1421715338584.00,-1.477727,-9.138796,-1.2645704
1421715338604.00,-0.70832705,-9.168883,-0.70009416
1421715338624.00,-0.40820113,-9.242979,-0.531844
1421715338644.00,-0.6489006,-8.663085,-0.41733214
1421715338664.00,-1.0042616,-8.2180605,-1.0491682
1421715338684.00,-1.2973522,-8.07855,-0.97716796
1421715338704.00,-1.5170952,-7.971074,-0.84080154
1421715338767.00,-0.812211,-8.712782,-0.041314088
1421715338768.00,0.5322931,-9.813593,0.6089337
1421715338769.00,1.2407699,-10.909164,-0.70368665
1421715338784.00,0.57001466,-10.530152,-1.979334
1421715338804.00,-0.0717009,-10.239457,-0.91923845
1421715338824.00,-1.1722124,-10.313852,-0.9023236
1421715338844.00,-1.9574794,-10.023605,-0.6887178
1421715338867.00,-1.7341439,-9.949659,-0.33889526
1421715338884.00,-1.1419753,-10.236464,-0.4393364
1421715338905.00,-1.1948154,-10.437944,-0.28590545
1421715338927.00,-2.2706282,-9.4965515,-0.3939807
1421715338944.00,-2.498155,-8.207433,0.21375549
1421715338964.00,-2.1386027,-8.387359,0.6288423
1421715338984.00,-1.5721806,-8.368348,0.80472654
1421715339004.00,-0.93001604,-9.083112,0.15208374
1421715339025.00,-0.6343808,-9.806856,-0.54621416
1421715339044.00,-0.46089157,-9.865984,-1.2240046
1421715339065.00,-0.73302567,-9.552685,-1.0663824
1421715339118.00,-1.0776091,-9.286987,-0.102686465
1421715339119.00,-1.1347902,-9.323362,0.4752617
1421715339127.00,-1.3837225,-10.152937,0.778531
1421715339144.00,-1.5808625,-10.841056,1.5141014
1421715339164.00,-1.997596,-11.377541,2.023492
1421715339184.00,-2.6062303,-11.350746,1.8907182
1421715339204.00,-2.8903396,-10.881921,1.7706679
1421715339224.00,-3.0864317,-12.361444,2.0113673
1421715339244.00,-2.9731174,-13.550571,2.0133133
1421715339264.00,-3.290757,-14.273418,0.86864364
1421715339284.00,-3.793711,-14.178965,-0.064815216
1421715339304.00,-3.700904,-12.538526,-1.1777508
1421715339324.00,-3.280578,-11.552526,-2.4095392
1421715339346.00,-2.7605593,-12.004886,-3.1602283
1421715339371.00,-2.6096733,-13.028458,-4.112997
1421715339385.00,-2.0369642,-12.948074,-7.1769753
1421715339452.00,-1.895658,-13.423486,-8.301288
1421715339453.00,-1.5956818,-14.141992,-2.9331505
1421715339455.00,-2.8020232,-13.091926,8.636141
1421715339465.00,-5.720953,-11.567945,6.190826
1421715339486.00,-5.3337083,-8.646171,2.1004322
1421715339504.00,-1.9148182,-10.385853,0.8515791
1421715339525.00,-1.2433145,-10.062974,-1.9696041
1421715339545.00,0.12708573,-8.484806,-3.3382082
1421715339567.00,-0.6926097,-7.9287124,-2.330354
1421715339584.00,-2.1142035,-7.23266,-1.4536271
1421715339604.00,-2.7768755,-6.012547,-0.3583548
1421715339624.00,-2.6949956,-5.4066067,-0.8858578
1421715339646.00,-2.5783882,-5.661377,-2.7942393
1421715339667.00,-2.916984,-5.1841693,-3.314707
1421715339732.00,-3.0563443,-4.9394283,-3.461402
1421715339733.00,-2.554438,-4.7723756,-3.8208046
1421715339734.00,-1.9815793,-4.5556264,-3.9338195
1421715339745.00,-2.1234841,-3.3989818,-4.1556582
1421715339764.00,-2.1882994,-2.742896,-4.4259963
1421715339784.00,-1.3476475,-3.2413595,-5.025799
1421715339804.00,0.07694,-3.7663178,-5.4064574
1421715339824.00,0.52765274,-4.115392,-6.417754
1421715339846.00,0.16241226,-4.110602,-6.6240253
1421715339865.00,-0.5287006,-4.003874,-6.4319744
1421715339890.00,-1.6236736,-4.0728803,-6.1800485
1421715339908.00,-2.2031186,-4.8181806,-7.8097095
1421715339925.00,-2.7391539,-7.921377,-10.251133
1421715339944.00,-4.0333624,-10.081835,-9.150172
1421715339964.00,-2.9898825,-9.301657,-6.8531985
1421715339984.00,-4.3237586,-6.230793,-4.2498126
1421715340004.00,-4.5258384,-5.5299506,-5.180577
1421715340068.00,-3.1196625,-8.125703,-6.1435246
1421715340069.00,-4.741989,-10.31535,-5.3274217
1421715340070.00,-5.3819084,-10.8048315,-5.2418
1421715340091.00,-4.2809477,-9.803413,-4.541556
1421715340114.00,-3.1011012,-9.05018,-3.1678624
1421715340124.00,-2.2592518,-9.010213,-2.3325994
1421715340144.00,-1.9215541,-9.329499,-2.0407064
1421715340164.00,-1.9612216,-9.716743,-2.0474424
1421715340184.00,-1.6366965,-9.767638,-1.4566209
1421715340204.00,-1.2040961,-9.854458,-0.877625
1421715340224.00,-0.9888437,-9.613459,-0.36703673
1421715340244.00,-1.0448272,-9.663305,0.0291893
1421715340266.00,-0.91325086,-9.599388,0.09370514
1421715340285.00,-0.5224136,-9.418115,-0.007933502
1421715340304.00,-0.6439609,-9.268276,-0.48858398
1421715340325.00,-0.9045689,-9.476793,-0.626597
1421715340392.00,-0.6978488,-9.462872,-0.5939648
1421715340393.00,-0.31404695,-9.452992,-0.2335144
1421715340394.00,0.028889922,-9.388476,-1.0181826
1421715340404.00,0.023650818,-9.523795,-1.0880873
1421715340424.00,-0.24324417,-9.658964,-0.8152048
1421715340444.00,-0.8095166,-9.719439,-0.99587905
1421715340465.00,-1.0386901,-9.896969,-1.1502081
1421715340484.00,-1.305136,-10.306967,-1.4045292
1421715340505.00,-1.6224761,-9.937684,-1.0310559
1421715340524.00,-2.2338047,-9.322314,-1.1121871
1421715340544.00,-2.342329,-9.024284,-0.8963361
1421715340564.00,-1.8621277,-8.789272,0.122445375
1421715340584.00,-1.4554235,-8.408614,-0.1434018
1421715340604.00,-0.4513115,-8.842562,-0.64261365
1421715340624.00,-0.22812562,-9.035959,-0.7092252
1421715340645.00,-0.55774015,-9.270672,-0.7934999
1421715340664.00,-1.1549982,-9.295071,-1.0336006
1421715340729.00,-1.4846127,-9.111852,-0.5040019
1421715340730.00,-1.495091,-9.396111,-0.3239264
1421715340731.00,-1.4181509,-9.992171,-0.4869374
1421715340745.00,-1.3889617,-9.9010105,0.8481363
1421715340765.00,-0.9142987,-10.337653,1.9339783
1421715340784.00,-0.35625917,-11.476185,2.9794042
1421715340804.00,-1.129102,-11.495046,1.9522403
1421715340825.00,-2.2050645,-11.395503,1.1087444
1421715340845.00,-2.6200018,-13.161231,2.0080743
1421715340866.00,-2.509232,-14.816938,2.2499712
1421715340884.00,-2.7081683,-14.935342,0.13397141
1421715340905.00,-2.8774662,-14.205609,-1.2422667
1421715340925.00,-2.4459138,-12.678485,-2.128424
1421715340944.00,-1.8973045,-11.198662,-2.6915529
1421715340965.00,-1.5896943,-10.748399,-2.6458979
1421715340985.00,-1.3174105,-12.011322,-2.5518932
1421715341048.00,-0.6629713,-12.842843,-3.8208046
1421715341048.00,-0.11765534,-13.1598835,-4.926705
1421715341049.00,-0.28590545,-11.4504385,-1.3319303
1421715341064.00,0.9690848,-11.722872,4.849765
1421715341084.00,-2.2773643,-12.414734,-0.31269974
1421715341104.00,-5.0099316,-10.015523,0.4869374
1421715341125.00,-4.0850053,-9.437425,2.2941294
1421715341149.00,-0.7399113,-11.293265,1.5932868
1421715341164.00,0.11256592,-9.66061,-1.4365627
1421715341185.00,-0.857417,-8.576265,-1.7212706
1421715341204.00,-1.7988094,-7.796387,-1.8824854
1421715341224.00,-2.618355,-7.320527,-1.8646724
1421715341244.00,-3.115621,-6.9662137,-1.3305831
1421715341265.00,-3.2558794,-6.836733,-1.5489789
1421715341289.00,-2.258204,-7.2111044,-2.692002
1421715341309.00,-1.50512,-7.1717362,-2.910248
1421715341324.00,-1.7209712,-6.3771887,-2.8759694
1421715341380.00,-2.094744,-5.5929694,-3.2174094
1421715341381.00,-2.050436,-5.334307,-3.5780096
1421715341384.00,-1.9240988,-4.9308963,-3.863915
1421715341404.00,-1.6359481,-4.4017467,-4.163592
1421715341424.00,-1.4518309,-4.290378,-4.3833346
1421715341444.00,-1.5500267,-3.6301012,-5.385351
1421715341464.00,-1.372945,-2.9268637,-5.619764
1421715341484.00,-1.081501,-3.0943651,-5.8052278
1421715341504.00,-0.54756135,-3.687432,-6.4893055
1421715341524.00,-0.23905289,-4.2694216,-6.3367724
1421715341544.00,-0.5387297,-4.586313,-7.5028477
1421715341566.00,-1.2305909,-5.760172,-10.2828665
1421715341584.00,-1.9374211,-6.703211,-10.421029
1421715341605.00,-3.0044024,-7.8659925,-7.259454
1421715341625.00,-3.0897248,-8.993748,-4.680467
1421715341644.00,-5.1135163,-6.9726505,-5.822442
1421715341714.00,-3.064577,-8.365654,-6.070776
1421715341715.00,-3.1274464,-8.688532,-5.899981
1421715341716.00,-4.5747867,-8.6559,-5.769602
1421715341725.00,-4.8186297,-8.663085,-5.7386165
1421715341745.00,-4.0540195,-9.1572075,-4.931944
1421715341765.00,-3.185376,-9.631271,-3.4015265
1421715341785.00,-2.4174728,-9.534273,-2.6616151
1421715341804.00,-1.6325052,-9.391022,-2.090852
1421715341824.00,-1.5073655,-9.345516,-1.7040564
1421715341844.00,-1.2135265,-9.340726,-1.2775933
1421715341866.00,-0.6402187,-9.67049,-0.82104266
1421715341897.00,-0.40505767,-9.953701,-0.19669098
1421715341904.00,-0.37990996,-10.106533,-0.038170625
1421715341925.00,0.036524046,-9.837842,-0.08876541
1421715341944.00,0.1526825,-9.624985,0.14250366
1421715341965.00,-0.26929,-9.625284,-0.6816824
1421715341985.00,-0.8053253,-9.602981,-0.9032217
1421715342005.00,-0.8946895,-9.080268,-1.1066487
1421715342073.00,-0.79739183,-8.956026,-1.2355307
1421715342074.00,-0.21854553,-8.792416,-0.98165864
1421715342075.00,0.05613327,-9.287886,-1.387315
1421715342087.00,0.3583548,-9.554182,-2.0323238
1421715342104.00,-0.12049942,-10.081685,-1.7678238
1421715342124.00,-0.47451323,-10.3631,-1.4208454
1421715342144.00,-1.4468912,-9.617351,-0.6129753
1421715342164.00,-2.3343956,-9.356294,-0.27258316
1421715342185.00,-2.3879843,-9.580078,-0.36658767
1421715342205.00,-2.751578,-9.017248,-0.554447
1421715342225.00,-1.6836988,-8.928483,-0.39457947
1421715342247.00,-0.5641768,-9.042696,-0.010627899
1421715342266.00,-0.327968,-8.959619,-0.044756927
1421715342284.00,-0.19040406,-8.992999,-0.58977354
1421715342305.00,-0.25941056,-9.3558445,-1.2166699
1421715342357.00,-0.5932164,-9.509725,-0.94872713
1421715342358.00,-1.2178674,-10.328821,0.022004241
1421715342367.00,-1.6435821,-11.559113,1.1311977
1421715342384.00,-0.7405101,-12.515325,2.4376807
1421715342404.00,-1.1708652,-12.0459,1.4274316
1421715342425.00,-2.771337,-12.776531,1.6295114
1421715342448.00,-3.4533188,-14.762152,2.5538392
1421715342467.00,-3.5866914,-14.372811,0.7092252
1421715342484.00,-3.369493,-13.799803,-1.2759466
1421715342509.00,-3.37099,-13.024715,-2.2999673
1421715342525.00,-2.4291487,-12.302467,-2.921325
1421715342545.00,-1.7601897,-12.620107,-3.5202296
1421715342564.00,-1.4956897,-13.010195,-4.4354267
1421715342586.00,-0.7114705,-13.660443,-5.9463844
1421715342606.00,-1.2843292,-12.816947,-5.036127
1421715342626.00,0.34847534,-13.281281,1.3730947
1421715342688.00,-1.9782861,-12.562476,3.562292
1421715342689.00,-5.793253,-10.386302,1.8914666
1421715342690.00,-5.8013363,-9.205557,2.0098705
1421715342704.00,-2.8485763,-10.025552,1.9116746
1421715342724.00,-0.6182144,-10.226883,-0.6647676
1421715342745.00,0.9503737,-8.971145,-2.6936486
1421715342765.00,-0.16974701,-7.5428147,-2.1724324
1421715342793.00,-1.7512083,-6.5152016,-0.76116717
1421715342806.00,-2.852618,-6.3050385,-0.15447876
1421715342824.00,-2.4754024,-6.3236,-0.98674804
1421715342844.00,-2.1909938,-5.272935,-2.2104533
1421715342865.00,-2.794389,-4.5761337,-2.7818153
1421715342884.00,-3.39015,-4.242328,-2.9023147
1421715342904.00,-3.049309,-4.016747,-3.0382318
1421715342927.00,-2.2162912,-3.5678306,-3.1289434
1421715342948.00,-1.8041981,-2.8858488,-4.104315
1421715343024.00,-1.8836828,-2.6125174,-5.940247
1421715343025.00,-1.2925621,-2.9503646,-5.7010446
1421715343025.00,-0.1910028,-2.9779074,-4.834197
1421715343026.00,0.79454774,-3.441643,-5.3578086
1421715343045.00,0.7063811,-3.6348913,-6.3249474
1421715343064.00,-0.61626846,-4.1035666,-9.759705
1421715343084.00,-2.6191034,-5.8468413,-12.692555
1421715343106.00,-4.710405,-8.327333,-9.990674
1421715343124.00,-3.4384997,-10.749596,-5.9752746
1421715343144.00,-4.8945217,-7.743248,-2.2385948
1421715343167.00,-3.5139427,-6.4036837,-6.744375
1421715343187.00,-1.7988094,-7.5510473,-5.8098683
1421715343204.00,-3.8821769,-9.100775,-4.5984373
1421715343224.00,-4.32795,-10.585088,-5.273833
1421715343248.00,-3.7988005,-10.418634,-5.233417
1421715343264.00,-3.54897,-9.742341,-4.0607557
1421715343284.00,-2.724784,-9.091345,-2.824776
1421715343308.00,-2.4281008,-8.659942,-2.3698719
1421715343376.00,-2.4023542,-9.211096,-2.3360422
1421715343377.00,-2.1829107,-9.71884,-1.7181271
1421715343378.00,-1.189726,-10.203681,-1.1570938
1421715343388.00,-0.36524048,-10.045311,-0.36524048
1421715343405.00,-0.06975494,-10.219698,0.22393432
1421715343424.00,0.28321105,-10.354717,0.22378464
1421715343444.00,0.61073,-10.017618,-0.07214996
1421715343465.00,0.045205995,-10.113718,-0.7921527
1421715343485.00,-0.89992857,-9.604477,-0.6500981
1421715343505.00,-0.9062155,-8.763077,-0.051941987
1421715343524.00,-0.47062135,-8.765472,-0.8602611
1421715343544.00,0.28979737,-8.851693,-1.9245479
1421715343565.00,1.0786569,-9.328152,-1.6277151
1421715343584.00,0.8589139,-10.011332,-1.687441
1421715343604.00,-0.57390654,-9.315878,-2.1110601
1421715343670.00,-1.2867242,-9.220376,-1.984573
1421715343672.00,-2.0288808,-9.29522,-1.7464184
1421715343673.00,-2.2439835,-9.589359,-1.377286
1421715343695.00,-2.028432,-9.340876,-1.0365944
1421715343705.00,-2.4249573,-8.264464,-0.8599617
1421715343725.00,-0.8879535,-8.983568,-1.0433304
1421715343744.00,0.3610492,-9.491313,-0.1407074
1421715343766.00,0.18920654,-8.637788,-0.064665526
1421715343788.00,-0.086819455,-9.00198,-0.9370514
1421715343805.00,-0.5442682,-9.801468,-0.4376898
1421715343825.00,-1.0307565,-10.543026,0.6860234
1421715343844.00,-0.6465056,-11.79592,2.1650977
1421715343865.00,-1.2322376,-12.306658,1.3564792
1421715343886.00,-2.5195606,-12.187057,0.97477293
1421715343907.00,-3.3539255,-13.510305,1.7004639
1421715343927.00,-3.3426988,-15.671511,1.6458275
1421715343990.00,-3.3287778,-14.9792,0.15896942
1421715343991.00,-3.1365774,-13.540543,-0.8017328
1421715343992.00,-2.880011,-12.473412,-1.5001804
1421715344005.00,-2.4358845,-12.029434,-2.460733
1421715344025.00,-2.475103,-12.657679,-3.2653098
1421715344045.00,-2.1474345,-13.486954,-4.0676413
1421715344064.00,-1.0960208,-13.394896,-6.4152093
1421715344088.00,0.21076173,-13.201198,-7.0614157
1421715344109.00,0.63557833,-15.06587,-0.9630972
1421715344124.00,-2.445764,-12.5264015,7.720645
1421715344145.00,-5.026697,-10.991194,5.1811757
1421715344165.00,-5.2506313,-9.525292,1.497935
1421715344185.00,-3.543132,-10.633886,-0.11765534
1421715344207.00,-0.6825806,-11.493699,-3.8535864
1421715344227.00,0.18546432,-9.444011,-3.5789077
1421715344246.00,-0.96668977,-8.1248045,-1.1753558
1421715344267.00,-1.6745677,-6.7009654,2.1056712
1421715344341.00,-1.7149837,-6.836583,0.001347199
1421715344342.00,-1.798959,-6.1813955,-2.3023622
1421715344343.00,-2.2972727,-5.487139,-2.0537293
1421715344345.00,-3.0692174,-4.5710444,-2.2598505
1421715344365.00,-3.4593062,-3.7080889,-2.4887247
1421715344386.00,-3.1078372,-2.6060805,-2.8072622
1421715344405.00,-2.277514,-1.9543359,-3.3537757
1421715344424.00,-2.095193,-1.9823277,-4.0372543
1421715344455.00,-2.6955945,-2.6702971,-4.6604085
1421715344465.00,-2.8815079,-2.516417,-4.6497808
1421715344485.00,-2.3897805,-1.9318826,-4.9783473
1421715344504.00,-1.7324972,-2.033222,-6.0022182
1421715344524.00,-1.6501684,-2.850672,-6.5617547
1421715344546.00,-2.0155587,-3.1687605,-7.172485
1421715344566.00,-2.5511448,-2.9344976,-7.4371343
1421715344588.00,-3.0064979,-2.5042922,-9.369616
1421715344649.00,-4.3754015,-4.4641666,-14.398408
1421715344650.00,-6.205346,-10.995086,-12.619807
1421715344651.00,-2.9750633,-12.047248,-6.9005003
1421715344664.00,-5.45795,-5.5462666,-3.244503
1421715344685.00,-5.403164,-4.3228607,-6.140381
1421715344705.00,-3.9442978,-6.173013,-5.802833
1421715344725.00,-6.7897305,-8.464298,-5.7775354
1421715344745.00,-7.1585636,-9.697734,-5.785619
1421715344766.00,-5.525759,-9.006471,-4.778962
1421715344786.00,-3.6582427,-7.7927947,-4.1650887
1421715344804.00,-3.0091925,-7.871082,-3.2692018
1421715344825.00,-2.68332,-8.330327,-2.5608747
1421715344844.00,-2.2912853,-8.847053,-2.3114932
1421715344865.00,-1.663341,-9.513766,-2.3951693
1421715344892.00,-1.069975,-9.707164,-2.439028
1421715344953.00,-0.4896318,-9.5666065,-1.9010468
1421715344954.00,-0.21121079,-8.806787,-1.2780423
1421715344954.00,-0.13906083,-7.841144,-0.4754114
1421715344965.00,0.048798524,-8.75185,-0.48274612
1421715344985.00,0.34847534,-10.638826,0.38380188
1421715345005.00,0.49966094,-11.451187,0.1911525
1421715345025.00,0.5243596,-11.141182,0.0703537
1421715345045.00,0.00239502,-9.924063,-0.5017566
1421715345066.00,-0.11615845,-8.655002,-1.0591974
1421715345090.00,-0.12484039,-8.228089,-0.35341507
1421715345107.00,0.23291565,-8.784333,0.2176474
1421715345124.00,-0.34263748,-9.175769,-0.54157376
1421715345146.00,-1.0728191,-9.297615,-0.9369017
1421715345165.00,-2.3737638,-8.825348,-0.4754114
1421715345187.00,-3.7860768,-8.687185,-0.7921527
1421715345205.00,-4.7653403,-8.8774395,-1.5405964
1421715345225.00,-4.7949786,-8.903336,-1.5953823
1421715345295.00,-2.8340566,-9.31992,-1.5634987
1421715345295.00,-0.4896318,-9.653874,-2.4197183
1421715345296.00,0.7592212,-10.011332,-2.2436843
1421715345306.00,1.1189232,-9.932146,-0.26479936
1421715345325.00,1.1419753,-10.145602,0.11301498
1421715345345.00,0.7506889,-10.376871,-0.35670823
1421715345365.00,0.61522067,-11.787538,-0.42002654
1421715345385.00,-0.54366946,-14.899567,1.3952485
1421715345405.00,-3.6211197,-15.123351,0.30731094
1421715345425.00,-3.4440382,-14.28704,-3.214116
1421715345445.00,-1.7967137,-13.159584,-2.5225544
1421715345465.00,-1.2660671,-12.296928,-0.21839584
1421715345485.00,-0.5914201,-11.798764,2.1071682
1421715345505.00,0.07349716,-11.898008,3.7098854
1421715345525.00,-0.1778302,-10.468032,5.5178256
1421715345545.00,-0.6908134,-9.73815,4.865632
1421715345565.00,-1.1844869,-9.9644785,2.2357507
1421715345621.00,-0.8788225,-10.210567,-0.7845186
1421715345622.00,-0.97492266,-10.115515,-1.6247214
1421715345632.00,-1.9284397,-9.637409,0.92462724
1421715345645.00,-2.0489392,-10.300231,3.7399726
1421715345665.00,-1.9053878,-8.437354,2.540068
1421715345685.00,-1.7188755,-8.546627,0.5616321
1421715345705.00,-2.112557,-8.857531,1.9562819
1421715345725.00,-1.9739451,-8.309221,1.961521
1421715345745.00,-2.223626,-8.081993,2.4761508
1421715345765.00,-2.6168582,-7.4833884,1.9245479
1421715345785.00,-3.085833,-6.7359924,1.2644206
1421715345805.00,-3.0885274,-6.151009,0.069455564
1421715345827.00,-2.956951,-5.669011,-0.9249266
1421715345845.00,-2.7319689,-5.7814274,-1.3132192
1421715345912.00,-2.877616,-6.4478416,-2.1112096
1421715345913.00,-2.8984227,-9.136401,-3.3103662
1421715345914.00,-2.240391,-12.686568,-4.499643
1421715345925.00,-1.5962806,-13.432766,-4.1468267
1421715345945.00,-1.0472223,-11.646531,-6.034701
1421715345965.00,-0.6427634,-10.328222,-6.891669
1421715345985.00,-0.83915496,-8.773556,-4.8340473
1421715346005.00,-1.3683046,-8.022267,-2.1299207
1421715346025.00,-1.8931133,-7.6519375,-0.8083191
1421715346047.00,-1.5612533,-6.171666,-0.19444565
1421715346069.00,-1.0183324,-8.344098,-0.75967026
1421715346085.00,-2.7306216,-16.883242,1.0841954
1421715346105.00,-4.976551,-18.807789,-4.93389
1421715346125.00,-4.0876994,-8.217611,1.0967692
1421715346145.00,-5.124743,-3.7562888,4.015849
1421715346166.00,-4.7870455,-4.4078836,4.820426
1421715346185.00,-3.999533,-6.422993,4.3773475
1421715346205.00,-2.4789948,-9.908046,3.543581
1421715346292.00,-0.9830058,-13.20988,4.0583606
1421715346293.00,0.9529184,-13.075759,1.705254
1421715346295.00,1.1241623,-10.837913,-8.372839
1421715346296.00,-0.6385721,-9.725875,-5.963449
1421715346306.00,-1.9972966,-9.079519,-0.68018556
1421715346325.00,-2.840044,-8.825348,1.2876223
1421715346346.00,-1.9943029,-9.15571,1.1529025
1421715346365.00,-0.87238586,-9.403745,-0.40820113
1421715346385.00,-0.29907808,-9.114246,-0.2585124
1421715346405.00,-0.6264473,-9.207802,0.8018825
1421715346425.00,-0.8412506,-9.5423565,1.2650194
1421715346445.00,-1.2519965,-9.678274,1.509461
1421715346465.00,-1.6307089,-9.820778,1.0820998
1421715346485.00,-1.9037411,-9.538165,0.3927832
1421715346505.00,-1.8520986,-9.405691,-0.16555573
1421715346525.00,-1.765279,-9.150621,-0.19040406
1421715346547.00,-1.6200811,-9.233549,-0.3475772
1421715346613.00,-1.1689192,-9.275611,-0.33260834
1421715346614.00,-0.3023712,-9.245374,0.2031276
1421715346615.00,0.5902226,-9.698631,0.73048097
1421715346625.00,0.16346008,-10.234817,0.5957611
1421715346645.00,-0.7243437,-10.248438,-0.15896942
1421715346665.00,-0.53843033,-9.93005,-0.46134064
1421715346685.00,-0.124541014,-10.028246,0.1790277
1421715346708.00,0.04580475,-10.304871,0.24608825
1421715346729.00,-0.04924759,-11.131901,-0.41987687
1421715346745.00,0.21061203,-12.617412,-1.3364209
1421715346765.00,0.6445596,-14.76829,-1.1996055
1421715346785.00,0.6990463,-14.528338,-0.9349558
1421715346806.00,-0.7192543,-12.665611,-1.9981947
1421715346826.00,-2.304757,-11.464061,-3.1889684
1421715346851.00,-2.0068767,-12.050241,-1.8820363
1421715346870.00,-0.9770183,-12.395873,-1.8429675
1421715346951.00,0.5869295,-12.633279,1.1621833
1421715346952.00,1.5563136,-12.816947,4.577032
1421715346953.00,0.64036834,-13.566289,2.288591
1421715346954.00,0.17797989,-13.32529,-0.41882905
1421715346965.00,0.9873468,-13.95503,1.8239571
1421715346985.00,0.7774832,-13.949043,1.1261083
1421715347006.00,-1.2957056,-11.110196,-0.97731763
1421715347025.00,-3.0352383,-9.230106,-1.7471668
1421715347045.00,-3.321892,-8.268655,-1.5145504
1421715347066.00,-2.8569589,-8.622819,-1.4503341
1421715347085.00,-1.9302361,-9.568402,-1.3953983
1421715347105.00,-1.8636246,-9.117391,-1.6673827
1421715347125.00,-2.038012,-8.081245,-2.6827211
1421715347145.00,-2.768493,-6.9807334,-3.1085856
1421715347167.00,-3.0461655,-5.3510723,-3.043471
1421715347186.00,-2.845433,-3.3706906,-3.1287937
1421715347245.00,-2.162104,-2.564018,-3.6396813
1421715347246.00,-1.4127622,-2.955903,-3.890859
1421715347247.00,-0.5780978,-3.6061509,-3.7660186
1421715347265.00,-0.69066375,-4.1393423,-4.8568
1421715347285.00,-1.7317488,-4.210145,-5.5774016
1421715347305.00,-2.6421556,-4.1107516,-5.835914
1421715347412.00,-3.3260834,-4.5036845,-6.1661277
1421715347413.00,-3.4967284,-5.550308,-7.537426
1421715347414.00,-3.7294946,-7.363338,-8.3780775
1421715347415.00,-4.186045,-8.801397,-7.354955
1421715347416.00,-3.074756,-10.028845,-6.258635
1421715347425.00,-3.7781434,-8.871901,-4.7431865
1421715347463.00,-4.6454396,-8.614286,-5.36185
1421715347466.00,-3.9731877,-8.910221,-5.840704
1421715347490.00,-4.474196,-9.699829,-5.1663566
1421715347505.00,-4.3569894,-10.033186,-4.978497
1421715347571.00,-3.4563127,-9.686657,-4.06824
1421715347572.00,-2.525548,-9.315429,-3.0990057
1421715347573.00,-1.4361136,-9.415121,-2.3444247
1421715347585.00,-0.9199869,-9.5721445,-1.7236656
1421715347605.00,-0.44816804,-9.73306,-1.294059
1421715347625.00,0.24429199,-9.8519125,-1.0994637
1421715347645.00,0.14265335,-9.738599,-1.4991325
1421715347665.00,-0.5842351,-9.283395,-1.5200889
1421715347685.00,-0.79260176,-8.917256,-0.84229845
1421715347705.00,-0.7652087,-8.889265,-0.6280939
1421715347725.00,-0.2639012,-8.803344,-0.517923
1421715347745.00,-0.16675323,-9.450298,-0.895887
1421715347765.00,0.5150789,-9.839639,-0.45071274
1421715347785.00,1.058898,-10.306518,-1.0924283
1421715347805.00,1.0886861,-10.140962,-1.1057506
1421715347825.00,1.0241703,-9.971364,-1.0506651
1421715347895.00,0.64321244,-10.017768,-1.6561561
1421715347903.00,-0.005388794,-9.581126,-2.0815713
1421715347904.00,-0.034278717,-9.691596,-1.3132192
1421715347905.00,-0.8092172,-10.22823,-1.1759546
1421715347929.00,-2.448758,-9.404643,-1.2464579
1421715347946.00,-2.2546115,-9.0406,-1.1895763
1421715347965.00,-1.5612533,-9.216035,0.065713346
1421715347987.00,-1.4976356,-8.194709,0.8918454
1421715348005.00,-0.36988083,-8.812025,-0.1484912
1421715348025.00,0.21285737,-9.346414,-1.1048524
1421715348045.00,0.23815475,-8.6788025,-0.823737
1421715348065.00,-0.042960662,-9.069939,-1.047372
1421715348085.00,-0.21151017,-9.976454,-0.89364165
1421715348105.00,-0.646805,-10.625954,-0.6252498
1421715348125.00,-0.6740483,-11.479328,0.45610154
1421715348145.00,-0.05763016,-12.368779,2.3584955
1421715348166.00,-0.7158115,-12.456047,1.6393908
1421715348276.00,-1.6536113,-12.575948,1.3982424
1421715348278.00,-2.207759,-13.596227,1.5206877
1421715348279.00,-2.29862,-14.197526,0.5351372
1421715348283.00,-2.4652236,-13.9881115,-0.2695894
1421715348284.00,-2.7984307,-13.155244,-0.69246
1421715348287.00,-2.6801765,-12.398268,-1.7896783
1421715348312.00,-2.1459374,-12.135863,-2.9461734
1421715348326.00,-1.6024177,-12.24289,-3.5944753
1421715348347.00,-1.1075468,-12.1749325,-5.1452503
1421715348366.00,-0.20088226,-13.199252,-7.495513
1421715348387.00,-0.18726058,-13.237722,-3.0210178
1421715348405.00,-2.2501209,-12.665013,2.9764106
1421715348430.00,-4.075575,-12.25277,4.9567924
1421715348445.00,-6.7120423,-10.010733,3.580105
1421715348465.00,-3.9098694,-10.452464,3.5444791
1421715348485.00,0.5144801,-11.863131,-4.584367
1421715348584.00,2.2022204,-10.644814,-5.0772915
1421715348585.00,0.44667113,-8.473879,-2.246229
1421715348586.00,-0.6262976,-7.1638026,0.12783417
1421715348587.00,-1.0618918,-6.759643,0.46687913
1421715348588.00,-1.0359956,-6.359076,-1.2207115
1421715348607.00,-1.2534933,-5.7020926,-2.4089406
1421715348625.00,-1.6838484,-4.4111767,-2.6611662
1421715348647.00,-2.340383,-2.6226962,-2.2770648
1421715348685.00,-2.3089485,-1.7324972,-2.4704626
1421715348686.00,-2.3227198,-1.0524614,-3.1831307
1421715348706.00,-2.6099725,-1.3603711,-4.5306287
1421715348728.00,-1.83698,-2.2339544,-4.2382865
1421715348745.00,-0.41897872,-2.8023226,-4.345314
1421715348767.00,0.84619033,-3.24121,-5.596412
1421715348785.00,0.93001604,-3.6369867,-7.276668
1421715348808.00,-0.31674135,-2.87567,-9.190438
1421715348826.00,-2.8788135,-4.7831535,-13.909824
1421715348889.00,-5.2383566,-11.866873,-8.554561
1421715348890.00,-2.934348,-13.654305,-2.6355693
1421715348891.00,-4.6363087,-8.782087,-4.550088
1421715348914.00,-2.5526419,-6.4006896,-5.749394
1421715348925.00,-3.323838,-7.5934095,-3.8814285
1421715348947.00,-4.89048,-10.241403,-3.5578015
1421715348966.00,-4.1685314,-11.701017,-4.235143
1421715348985.00,-2.9376411,-10.855576,-3.4432898
1421715349008.00,-2.5132737,-9.299262,-2.4812403
1421715349025.00,-2.681823,-8.501421,-2.816094
1421715349045.00,-2.4197183,-8.989107,-2.6656568
1421715349065.00,-1.2632232,-9.8149395,-1.19736
1421715349086.00,0.08113129,-10.502311,-0.5029541
1421715349105.00,0.6816824,-10.532697,-0.14429992
1421715349126.00,1.0455757,-10.166409,-0.05763016
1421715349147.00,0.9114546,-9.786948,-0.221689
1421715349165.00,0.53423905,-9.182205,-0.37826338
1421715349255.00,0.3875441,-8.946296,-0.5176236
1421715349258.00,0.14819184,-9.657467,-0.8797206
1421715349259.00,0.17977615,-9.579928,-0.7418573
1421715349260.00,0.3028203,-9.443711,-0.7825726
1421715349269.00,0.9355545,-9.708362,-1.8640736
1421715349285.00,1.1933185,-9.877958,-2.0092716
1421715349308.00,0.9303154,-9.467662,-1.705703
1421715349329.00,0.025147704,-9.4104805,-1.3638139
1421715349345.00,-1.0918295,-9.556876,-2.1421952
1421715349366.00,-2.0296295,-9.312136,-1.9872675
1421715349385.00,-1.8781444,-9.297017,-0.90950865
1421715349405.00,-1.7357904,-8.781339,-0.8370593
1421715349426.00,-0.8716374,-8.178543,-0.33156052
1421715349445.00,0.6731502,-8.778046,-1.4476396
1421715349466.00,1.314716,-8.664133,-1.956731
1421715349532.00,1.337319,-8.719218,-2.0210972
1421715349533.00,0.80622345,-9.825567,-1.6140934
1421715349534.00,0.14624588,-10.5306015,-0.13561799
1421715349545.00,-0.16585511,-11.162887,1.5208374
1421715349566.00,-1.0623409,-11.134446,1.6093035
1421715349586.00,-2.3288572,-11.273058,1.9013461
1421715349605.00,-2.5221052,-12.141103,3.06323
1421715349625.00,-3.0029054,-13.505365,2.045197
1421715349645.00,-3.3352144,-14.975608,0.15417938
1421715349665.00,-3.227738,-14.873221,-0.8812175
1421715349686.00,-3.1811848,-13.995895,-1.9450552
1421715349705.00,-2.7366092,-13.165572,-2.9204268
1421715349725.00,-2.3064039,-12.602143,-3.4022748
1421715349746.00,-1.6694783,-12.484189,-3.3706906
1421715349765.00,-1.6260686,-12.473561,-3.867807
1421715349791.00,-1.637894,-12.01761,-5.4235215
1421715349808.00,-1.5223343,-12.527,-5.394632
1421715349860.00,-0.75203615,-12.046799,2.2993684
1421715349861.00,-1.9212548,-12.269385,3.1895673
1421715349870.00,-5.2956877,-10.053095,1.0006691
1421715349886.00,-5.2239866,-9.438323,1.1002121
1421715349905.00,-2.5923092,-10.19006,1.3591735
1421715349926.00,0.61342436,-11.594589,-2.7791207
1421715349945.00,1.4356645,-9.325607,-3.9160066
1421715349966.00,-0.14774276,-7.6419086,-2.3258634
1421715349985.00,-1.3308824,-6.6464787,-0.69889665
1421715350006.00,-1.5489789,-6.3747935,-0.5188211
1421715350025.00,-1.5655943,-6.407725,-1.9233503
1421715350045.00,-1.841321,-5.6259007,-2.5180635
1421715350068.00,-2.4739056,-4.6125083,-2.5101302
1421715350087.00,-2.9927266,-3.899541,-2.7553203
1421715350107.00,-2.891537,-3.271447,-3.5334022
1421715350127.00,-2.7909462,-2.6764343,-3.6892283
1421715350193.00,-2.930905,-2.1194427,-4.3289976
1421715350194.00,-2.4845333,-2.536176,-5.2712884
1421715350195.00,-1.3768369,-2.894381,-4.894971
1421715350206.00,-0.20193009,-3.3298256,-5.918243
1421715350227.00,0.3876938,-3.9425015,-6.235284
1421715350245.00,0.35266662,-4.5319757,-6.632857
1421715350265.00,-0.33260834,-4.753814,-7.8653936
1421715350285.00,-1.2705579,-6.4050307,-10.68029
1421715350306.00,-2.775229,-9.618249,-11.636801
1421715350326.00,-3.5645375,-9.678124,-8.084089
1421715350345.00,-2.33709,-8.778046,-4.59724
1421715350373.00,-4.4200087,-5.8025336,-2.940635
1421715350385.00,-3.7892203,-6.4988856,-6.9332824
1421715350405.00,-2.2909858,-8.882229,-6.4589186
1421715350427.00,-4.605473,-10.294692,-4.9017067
1421715350445.00,-4.5023375,-10.979518,-4.8364425
1421715350516.00,-3.7588334,-10.098301,-4.2150846
1421715350517.00,-3.2554302,-9.272018,-3.1335838
1421715350518.00,-3.221451,-8.457862,-2.3317013
1421715350528.00,-2.7125094,-8.380323,-1.9592757
1421715350547.00,-2.2233267,-8.842113,-1.6582516
1421715350565.00,-1.6055613,-9.170679,-1.5004797
1421715350585.00,-1.2199631,-9.231004,-1.0650352
1421715350605.00,-0.6759943,-9.234596,0.05987549
1421715350625.00,0.70024383,-10.1068325,0.98225737
1421715350647.00,1.6030165,-10.165661,0.29488677
1421715350665.00,2.1239333,-10.243948,-0.2999762
1421715350686.00,1.755699,-10.342143,-0.9065149
1421715350705.00,1.1952645,-9.909244,-0.57660097
1421715350726.00,0.6538403,-9.035212,-0.8984317
1421715350745.00,0.5306465,-9.129664,-1.0907817
1421715350765.00,0.4405339,-9.385932,-1.5254778
1421715350833.00,0.14100677,-9.919572,-2.1299207
1421715350834.00,0.062120818,-9.782757,-1.7323476
1421715350834.00,-0.16301101,-9.563164,-0.40056702
1421715350845.00,-0.87807405,-9.7618,-1.1153307
1421715350865.00,-1.2174183,-9.541308,-0.8044272
1421715350885.00,-1.545536,-9.396859,0.001347199
1421715350905.00,-1.5341597,-9.444011,-0.86475176
1421715350926.00,-0.5131329,-9.032666,0.102686465
1421715350946.00,0.2562671,-8.670719,-0.25791368
1421715350966.00,0.8457413,-8.533455,-0.94678116
1421715350987.00,0.45086244,-8.657248,-1.0277628
1421715351008.00,0.014370117,-9.020392,-0.7696994
1421715351026.00,-0.6304889,-9.405092,-0.30641282
1421715351046.00,-0.51971924,-9.894125,-0.30731094
1421715351065.00,-0.6942563,-10.440639,0.35850447
1421715351085.00,-0.22138962,-11.676768,2.5447083
1421715351106.00,0.848286,-12.6903105,4.9865804
1421715351127.00,-0.52001864,-12.323124,2.477498
1421715351191.00,-2.822231,-13.429772,1.5483801
1421715351192.00,-3.4958303,-14.183156,1.2358301
1421715351193.00,-3.3501832,-14.079721,-0.26375154
1421715351207.00,-3.2283366,-13.796959,-0.93660235
1421715351225.00,-2.6514363,-12.713512,-1.1811937
1421715351245.00,-1.7233663,-11.417357,-1.510958
1421715351265.00,-1.167572,-11.441757,-1.7551003
1421715351286.00,-1.2129277,-12.139156,-2.2766159
1421715351305.00,-0.6831793,-12.291091,-4.263434
1421715351325.00,-0.021555176,-12.286151,-6.4667025
1421715351346.00,0.10852432,-11.869567,-4.722829
1421715351366.00,-1.7461189,-11.325,3.704646
1421715351385.00,-2.1781206,-12.344829,2.9404852
1421715351406.00,-4.324208,-9.89188,1.5148499
1421715351471.00,-2.7978318,-9.163344,1.9405646
1421715351472.00,0.6542894,-11.136991,1.7058526
1421715351473.00,1.4540763,-10.272239,-3.3456926
1421715351485.00,0.5096901,-9.113499,-3.0171258
1421715351505.00,-1.6069084,-8.353529,-1.9699036
1421715351525.00,-2.228416,-7.3992634,-0.5834866
1421715351545.00,-2.1383033,-7.1076694,-0.73048097
1421715351565.00,-1.7757573,-6.6138463,-1.357527
1421715351591.00,-1.9188597,-6.2745023,-3.0846355
1421715351605.00,-1.6694783,-5.7853193,-3.412753
1421715351627.00,-1.7666262,-5.3461328,-3.3498838
1421715351646.00,-2.0104692,-4.959038,-3.437302
1421715351665.00,-1.8568885,-3.5504668,-3.5299594
1421715351685.00,-1.4783258,-2.531386,-3.5557058
1421715351705.00,-1.5256275,-1.5829582,-4.828958
1421715351725.00,-1.5914905,-1.4278808,-5.912854
1421715351745.00,-0.8481363,-1.8206639,-5.508994
1421715351796.00,0.43589357,-2.5664132,-6.0309587
1421715351797.00,0.99198717,-3.1775923,-6.6291146
1421715351806.00,-0.2228865,-3.6058517,-8.110435
1421715351825.00,-2.1311183,-5.4272637,-10.64182
1421715351847.00,-3.6206708,-10.637778,-11.092084
1421715351865.00,-2.1670437,-12.980706,-7.3112464
1421715351886.00,-2.0703447,-8.77101,-4.141438
1421715351906.00,-4.5851154,-3.989803,-4.4247985
1421715351926.00,-3.5353482,-4.7786627,-5.041965
1421715351945.00,-3.3178506,-8.510403,-5.2260823
1421715351965.00,-3.4934354,-11.257041,-5.0130754
1421715351986.00,-3.063679,-11.288475,-5.4919295
1421715352006.00,-2.726131,-10.378967,-4.301006
1421715352025.00,-2.4261549,-9.567055,-3.3203952
1421715352045.00,-1.6591498,-9.696686,-2.8586054
1421715352066.00,-1.259481,-10.347682,-2.295776
1421715352126.00,-1.001717,-10.561288,-1.8273998
1421715352127.00,-0.5363347,-10.306068,-1.7464184
1421715352129.00,-0.062270507,-10.023905,-1.6733702
1421715352146.00,-0.24489075,-9.3806925,-0.85142946
1421715352166.00,-0.17618363,-8.945996,-0.22258712
1421715352185.00,0.16630417,-9.268725,0.065264285
1421715352207.00,0.3050656,-9.8270645,-0.1751358
1421715352226.00,0.32287857,-10.279723,-0.52914965
1421715352246.00,0.24938141,-10.422526,-0.4564009
1421715352267.00,0.40655458,-10.082583,-0.043858796
1421715352285.00,0.3185376,-9.16095,-0.6002518
1421715352306.00,0.36449203,-8.644224,-1.2443624
1421715352326.00,0.8147557,-8.848549,-1.0395882
1421715352345.00,1.3635145,-9.485025,-1.0876383
1421715352367.00,0.9942325,-9.602681,-1.807192
1421715352388.00,0.001496887,-9.384584,-1.9149678
1421715352405.00,-0.3600014,-9.307795,-1.3904586
1421715352465.00,-0.9213341,-9.850716,-2.0372634
1421715352466.00,-1.284928,-9.683812,-0.8321196
1421715352467.00,-1.253643,-9.3012085,-0.60234743
1421715352486.00,-0.89678514,-8.987909,-0.6066884
1421715352506.00,-0.57914567,-9.046139,-0.47466293
1421715352525.00,-0.316891,-9.518107,0.005239105
1421715352545.00,-0.25701553,-9.299861,-0.85247725
1421715352566.00,-0.07259903,-9.232052,-0.7918533
1421715352586.00,-0.278421,-8.951685,0.07334747
1421715352606.00,-0.5346881,-9.133107,0.28605515
1421715352626.00,-0.39996827,-9.594598,-0.2665956
1421715352645.00,-0.68407744,-9.67992,-0.0092807
1421715352665.00,-0.7161108,-9.860445,0.8211923
1421715352688.00,0.00703537,-10.874736,1.8173708
1421715352706.00,0.08083191,-11.292367,3.098257
1421715352726.00,-1.0560539,-10.5620365,2.0272343
1421715352779.00,-1.5449373,-11.5944395,0.60608965
1421715352782.00,-1.5778688,-13.43606,1.472937
1421715352792.00,-1.4072237,-14.160104,1.5206877
1421715352806.00,-1.1856843,-13.98377,0.10822494
1421715352832.00,-1.1133847,-14.198574,-0.9395961
1421715352846.00,-0.9183403,-13.019326,-1.1909235
1421715352866.00,-0.9422905,-11.794573,-1.6033158
1421715352886.00,-0.6189629,-11.291619,-2.2555096
1421715352906.00,-0.18217117,-11.621084,-2.9442275
1421715352926.00,0.56492525,-12.389286,-4.24128
1421715352945.00,1.2567865,-12.602443,-5.5941668
1421715352966.00,1.3198055,-12.443174,-2.6490412
1421715352985.00,1.1320958,-12.858411,1.8226099
1421715353006.00,0.43065444,-14.108162,-0.8710387
1421715353025.00,-2.6776319,-12.732822,-0.64949936
1421715353046.00,-5.5342913,-10.967543,2.4324417
1421715353106.00,-2.5622218,-11.042986,4.864135
1421715353106.00,0.4126918,-10.885064,-2.4948618
1421715353108.00,0.74260575,-8.97309,-2.7922933
1421715353126.00,-0.98944247,-7.8582087,-1.3847704
1421715353145.00,-1.8158739,-6.879095,-1.253643
1421715353165.00,-1.8094373,-6.9783382,-0.25042924
1421715353186.00,-1.1325449,-7.3982153,-1.1644286
1421715353206.00,-1.5525714,-6.6749196,-2.044299
1421715353225.00,-2.30341,-5.5571938,-1.8814375
1421715353246.00,-2.7216403,-4.305796,-2.6370661
1421715353266.00,-2.8815079,-3.3579671,-3.2576756
1421715353286.00,-2.5069866,-3.2293844,-3.5944753
1421715353306.00,-2.6641598,-3.1861243,-3.7452118
1421715353325.00,-2.6312284,-2.921325,-4.0344105
1421715353345.00,-2.7246342,-2.3285577,-4.7027707
1421715353367.00,-2.0574715,-1.5326629,-4.5476933
1421715353387.00,-1.3500426,-2.0743864,-6.0414367
1421715353473.00,-0.5653743,-3.0674212,-7.4782987
1421715353474.00,-0.69575316,-3.5905833,-7.12653
1421715353475.00,-1.2769945,-3.343597,-7.0196524
1421715353476.00,-2.302512,-3.5061588,-9.690399
1421715353486.00,-3.1865735,-7.979756,-12.890893
1421715353506.00,-3.874543,-11.881842,-10.054741
1421715353526.00,-1.6175363,-10.596165,-5.6458097
1421715353546.00,-3.3837135,-5.773195,-4.1772137
1421715353566.00,-3.049758,-5.506599,-6.410719
1421715353586.00,-2.1318667,-7.6821747,-6.2448635
1421715353606.00,-3.8972955,-10.187964,-5.4485197
1421715353626.00,-3.9902523,-10.804532,-5.8151073
1421715353646.00,-3.014731,-9.8044615,-4.971911
1421715353666.00,-2.3638842,-8.744216,-3.975882
1421715353686.00,-2.1890478,-8.246651,-3.1587315
1421715353706.00,-2.0089724,-8.318501,-2.663112
1421715353782.00,-2.1366568,-8.697813,-2.4948618
1421715353783.00,-1.8538948,-9.091644,-2.3772066
1421715353785.00,-1.2904664,-9.0253315,-1.8859282
1421715353786.00,-0.8071216,-8.750504,-1.5079641
1421715353805.00,-0.86100954,-8.377778,-0.93735075
1421715353826.00,-0.2680925,-9.168883,0.17872833
1421715353846.00,0.19399658,-9.8728695,0.52795213
1421715353865.00,0.6683601,-10.517578,-0.067060545
1421715353886.00,0.72643936,-10.6755,-0.6578819
1421715353906.00,0.39727387,-10.02181,-1.0710227
1421715353925.00,-0.2505789,-9.478589,-0.592917
1421715353946.00,-0.020956421,-9.253457,-0.34488282
1421715353967.00,0.07664063,-8.834478,-0.89648575
1421715353988.00,0.28725266,-8.523275,-0.91070616
1421715354008.00,0.79035646,-8.6964655,0.21824616
1421715354035.00,0.8693921,-8.989407,0.42436752
1421715354101.00,0.9129515,-9.699679,-0.13352233
1421715354103.00,0.33470398,-10.17045,-0.8276289
1421715354104.00,-0.58109164,-10.005643,-0.82643145
1421715354106.00,-1.5323634,-9.164243,-0.58198977
1421715354126.00,-2.0929477,-8.728948,-0.27797195
1421715354146.00,-1.8580861,-8.5348015,0.08981323
1421715354166.00,-1.4843134,-8.864566,0.44981462
1421715354186.00,-0.8143066,-9.108708,0.73407346
1421715354209.00,-0.04924759,-9.249715,1.0780581
1421715354226.00,0.9446855,-10.008338,0.9159453
1421715354246.00,2.0037332,-10.261461,-0.63497955
1421715354267.00,2.6053321,-10.187515,-2.1594095
1421715354286.00,1.2728032,-10.605446,-0.96698916
1421715354308.00,-1.1505075,-10.698253,0.87463117
1421715354328.00,-2.167792,-12.373718,1.5479311
1421715354347.00,-0.832419,-15.019168,0.9352551
1421715354437.00,0.68302965,-15.425273,0.8517288
1421715354438.00,-0.6527925,-13.321997,-1.1416758
1421715354439.00,-2.517914,-11.992162,-3.0509555
1421715354440.00,-3.1448104,-11.342663,-1.6938776
1421715354450.00,-2.378853,-10.827884,1.2802876
1421715354466.00,-1.4346167,-10.10833,3.343148
1421715354486.00,-0.61791503,-9.878557,4.619843
1421715354506.00,-0.36479142,-10.156529,2.525548
1421715354527.00,-0.6342311,-10.773995,0.65204406
1421715354546.00,-1.5147002,-11.962523,-1.4835649
1421715354567.00,-2.4560926,-11.261232,-1.771566
1421715354586.00,-2.9976664,-11.147319,0.39338195
1421715354606.00,-2.5215065,-10.405611,3.32773
1421715354626.00,-1.9585272,-9.380094,2.5511448
1421715354654.00,-1.359473,-8.198451,0.7447014
1421715354669.00,-1.5028747,-7.815248,0.4022136
1421715354689.00,-1.3009447,-7.419172,1.0163864
1421715354754.00,-1.4602134,-6.6374974,1.2305909
1421715354755.00,-1.5892452,-5.740862,0.59276736
1421715354756.00,-1.7242644,-4.955595,0.26854157
1421715354768.00,-1.6664845,-4.3278003,0.17588425
1421715354786.00,-1.5955321,-3.81826,-0.70293826
1421715354806.00,-1.8067429,-4.328549,-1.5846047
1421715354826.00,-1.4810202,-5.9903927,-3.1915133
1421715354846.00,-0.73347473,-10.235565,-6.299949
1421715354867.00,1.2913646,-16.315472,-8.140372
1421715354886.00,1.065634,-17.18696,-8.36715
1421715354906.00,-0.12558883,-12.583732,-7.47785
1421715354926.00,-2.1246817,-9.533076,-5.1075287
1421715354949.00,-4.2052054,-8.057744,-1.9449055
1421715354967.00,-4.067342,-6.08784,-1.0023156
1421715354988.00,-2.743495,-7.396569,-1.7368382
1421715355058.00,-0.50759447,-15.3984785,-0.46119094
1421715355059.00,-2.20252,-16.64374,-1.6353493
1421715355060.00,-2.9505143,-8.805589,1.8519489
1421715355069.00,-3.1915133,-4.2319994,3.785029
1421715355086.00,-3.8200562,-5.683232,4.5373645
1421715355106.00,-2.9103978,-7.950866,4.4969487
1421715355126.00,-1.162782,-11.196417,4.2454715
1421715355148.00,1.3474978,-13.262421,3.4187407
1421715355167.00,3.5588493,-12.056977,-0.8903485
1421715355186.00,3.3126113,-9.610166,-2.3617887
1421715355206.00,0.4206253,-9.24268,-1.2317885
1421715355226.00,-2.4022045,-9.437275,-0.21300705
1421715355246.00,-3.4964292,-9.761352,0.43903702
1421715355266.00,-2.1097128,-9.622291,0.67734146
1421715355286.00,-0.5095404,-9.457334,0.19579285
1421715355306.00,-0.20716919,-9.144783,0.6569838
1421715355326.00,-0.81924635,-9.1129,1.0464739
1421715355389.00,-1.3858181,-8.847951,1.1811937
1421715355390.00,-2.2258713,-8.706494,0.34458342
1421715355391.00,-2.1498294,-9.007369,-0.05254074
1421715355408.00,-1.5147002,-9.750573,-0.0902623
1421715355426.00,-0.925226,-10.160871,-0.29922774
1421715355446.00,-0.5442682,-10.4445305,-0.934357
1421715355466.00,-0.73332506,-10.028246,-1.40902
1421715355486.00,-0.86984116,-10.0014515,-1.0982661
1421715355506.00,0.26629624,-9.760004,-0.021106109
1421715355526.00,1.2172687,-9.868379,2.0005898
1421715355546.00,0.8822653,-11.07008,0.13382171
1421715355566.00,0.4447252,-11.624677,-4.4518924
1421715355586.00,1.2097843,-12.834161,-1.859583
1421715355606.00,2.5884173,-15.157928,0.5484595
1421715355628.00,3.7688627,-15.504608,1.1302996
1421715355649.00,1.8429675,-13.561049,0.9198372
1421715355715.00,-2.6509871,-11.06993,-0.1353186
1421715355717.00,-2.8003767,-10.435998,0.56312895
1421715355718.00,-1.7851877,-10.199341,2.76984
1421715355727.00,-0.065264285,-11.216775,2.5951533
1421715355746.00,2.0944445,-11.352692,2.4378304
1421715355766.00,2.191443,-11.567346,1.71678
1421715355786.00,1.1946657,-11.221564,0.8345146
1421715355806.00,-0.62599826,-10.336755,1.6357983
1421715355827.00,-1.6411872,-10.3387,3.1808853
1421715355848.00,-1.4738351,-10.23766,6.20804
1421715355866.00,-1.6179854,-8.950337,1.5798148
1421715355887.00,-1.400787,-8.311616,0.1526825
1421715355906.00,-1.6145425,-7.914192,1.5091617
1421715355926.00,-1.7143849,-7.753726,1.612896
1421715355946.00,-2.1347108,-7.765851,1.6536113
1421715355966.00,-2.1763244,-7.586823,1.9061362
1421715355986.00,-2.6197023,-7.303163,1.6875906
1421715356036.00,-3.1346314,-6.7484164,0.61881316
1421715356040.00,-3.4905913,-6.694229,-1.0412347
1421715356048.00,-3.5509157,-7.095994,-2.2754183
1421715356068.00,-3.329676,-8.533455,-3.0576916
1421715356086.00,-2.1414468,-10.978769,-3.2886612
1421715356106.00,-0.73497164,-12.909155,-3.4301171
1421715356126.00,0.4180806,-11.923156,-4.3605824
1421715356149.00,1.2554393,-10.505454,-7.168593
1421715356168.00,1.0725197,-9.345965,-6.862629
1421715356187.00,0.16256195,-8.273745,-3.8820274
1421715356208.00,-0.31913635,-8.692124,-0.48394364
1421715356226.00,-0.09595047,-8.214618,0.21450394
1421715356246.00,-0.24548951,-9.807006,-2.1164489
1421715356266.00,-2.204765,-15.487543,2.1261785
1421715356287.00,-3.6275566,-16.033907,-1.719624
1421715356358.00,-4.329896,-7.452852,0.6893166
1421715356359.00,-4.6038265,-5.052144,3.2153137
1421715356360.00,-4.0751257,-5.089716,4.4575806
1421715356370.00,-3.8688548,-7.0807257,3.7800894
1421715356386.00,-2.0122654,-10.473869,4.0872507
1421715356406.00,0.4378395,-13.74352,3.7384758
1421715356426.00,2.7589128,-13.223501,-1.2129277
1421715356449.00,3.9556742,-10.159972,-5.2208433
1421715356467.00,2.0929477,-10.201436,-2.2433848
1421715356490.00,-0.6047424,-10.033186,-0.2814148
1421715356521.00,-2.0664527,-9.389974,1.1563454
1421715356527.00,-1.9803817,-9.2609415,1.1508069
1421715356547.00,-1.959126,-9.166489,-0.081580356
1421715356566.00,-1.920656,-8.756491,0.253423
1421715356586.00,-1.8488054,-8.727601,0.69754946
1421715356606.00,-1.3148657,-8.794212,1.0529104
1421715356626.00,-0.33215928,-9.39162,1.0582993
1421715356685.00,0.183219,-10.001302,1.0496173
1421715356686.00,0.4285588,-10.2635565,0.8345146
1421715356687.00,0.053289186,-10.096504,0.45056304
1421715356706.00,-0.818947,-10.071956,-0.16390915
1421715356726.00,-1.9188597,-9.776171,-2.4400759
1421715356746.00,-1.387315,-9.3679695,-3.8047879
1421715356766.00,0.17214203,-9.812695,-1.5985259
1421715356786.00,0.8782237,-10.43031,0.40236327
1421715356806.00,0.64695466,-11.378737,0.5441185
1421715356826.00,0.59097105,-12.500056,-0.4182303
1421715356846.00,1.4150075,-13.747861,-0.13636643
1421715356866.00,1.9038908,-14.217734,-0.1420546
1421715356886.00,1.0274634,-12.499008,-2.1743784
1421715356906.00,-0.17154327,-10.594519,-1.4136603
1421715356928.00,-1.0222243,-10.067315,-0.104183346
1421715356947.00,-1.5578105,-10.708431,0.13412109
1421715357019.00,-1.3207036,-11.59399,-0.7228468
1421715357020.00,-1.2949572,-12.451857,-1.9001486
1421715357020.00,0.24339385,-12.997322,2.5056396
1421715357029.00,0.943488,-13.199552,2.665956
1421715357046.00,1.5977774,-13.054802,1.7357904
1421715357066.00,2.3493645,-13.51749,0.36808455
1421715357086.00,1.0392888,-13.145064,-0.7099736
1421715357106.00,-0.6445596,-12.110416,-0.38290375
1421715357127.00,-1.6343014,-10.347233,-0.97881454
1421715357146.00,-1.4054275,-9.280102,-2.2685325
1421715357166.00,-0.7940987,-8.930429,-2.582729
1421715357186.00,-1.0856923,-8.619975,-2.227967
1421715357206.00,-1.6483722,-8.160879,-1.9806812
1421715357226.00,-2.1924906,-7.411388,-2.298171
1421715357248.00,-2.7214906,-6.829548,-3.0359867
1421715357267.00,-2.8259733,-6.242469,-3.1326857
1421715357291.00,-2.39472,-4.898863,-3.1085856
1421715357349.00,-1.5519726,-3.5317557,-3.4196389
1421715357350.00,-1.3338761,-3.476221,-4.023932
1421715357351.00,-1.4620098,-3.8987925,-4.285738
1421715357366.00,-1.8944604,-4.1736207,-4.5328736
1421715357387.00,-2.020199,-4.3658214,-4.9048505
1421715357406.00,-1.9522403,-4.569248,-5.421875
1421715357426.00,-1.8273998,-4.8873367,-6.511609
1421715357447.00,-1.5551162,-5.8338184,-7.5477543
1421715357467.00,-1.2772938,-6.7214727,-8.916807
1421715357486.00,-2.160607,-7.5675135,-8.255782
1421715357506.00,-3.113226,-8.431966,-6.7590446
1421715357526.00,-2.4740553,-8.561147,-5.859266
1421715357548.00,-3.3944912,-8.610993,-4.387526
1421715357566.00,-2.7967842,-9.093141,-6.8653235
1421715357586.00,-2.9207263,-9.585018,-6.5623536
1421715357606.00,-4.0848556,-10.084828,-5.111121
1421715357674.00,-3.3426988,-10.331515,-4.414919
1421715357675.00,-2.3694227,-10.076446,-3.6660264
1421715357676.00,-1.5997233,-9.8338,-2.9145892
1421715357687.00,-0.99977094,-9.799971,-2.5450077
1421715357707.00,-0.76610684,-9.731264,-1.6558566
1421715357726.00,-0.56462586,-9.558972,-1.4078224
1421715357746.00,-0.9888437,-9.000334,-1.6810043
1421715357766.00,-0.925226,-8.911718,-1.4471905
1421715357787.00,-0.7382648,-8.788225,-0.9827064
1421715357810.00,-0.37317398,-8.457413,-0.4538562
1421715357831.00,0.31299913,-8.498128,0.18531464
1421715357846.00,1.0340496,-8.903785,0.05508545
1421715357866.00,1.9935544,-9.952503,-0.25806335
1421715357886.00,2.4998016,-10.230475,-0.48499146
1421715357908.00,2.5586293,-10.6996,-0.78406954
1421715357928.00,2.0579205,-9.601034,-1.0336006
1421715357993.00,1.3795313,-9.433533,-0.9216335
1421715357994.00,0.4537065,-9.866732,-1.4964381
1421715357995.00,-0.45984375,-10.041419,-1.9489472
1421715358006.00,-0.984353,-9.648187,-1.2472064
1421715358026.00,-1.2903168,-9.743837,-0.975222
1421715358054.00,-1.0162368,-10.022259,0.04670288
1421715358066.00,-1.0818003,-9.29043,0.6303392
1421715358087.00,-0.69859725,-9.042097,-0.34143996
1421715358106.00,-0.63932055,-8.690029,-0.3156935
1421715358129.00,-0.62480074,-8.274643,0.8285271
1421715358149.00,0.12409195,-8.9883585,-0.5553452
1421715358169.00,0.62315416,-10.1768875,-1.1241623
1421715358187.00,0.42661285,-9.920171,-0.6629713
1421715358210.00,0.4432283,-8.829539,-1.0475217
1421715358226.00,0.3132985,-8.781339,-1.0798545
1421715358246.00,0.29144394,-9.365274,-0.640518
1421715358268.00,0.35506165,-9.45449,-0.28994706
1421715358333.00,0.31793883,-10.059531,0.8387059
1421715358334.00,0.41134462,-10.8103695,2.1671934
1421715358335.00,0.4870871,-11.646681,2.8807595
1421715358348.00,-0.23246658,-12.249328,2.3757098
1421715358367.00,-1.6259189,-12.764855,2.2113514
1421715358387.00,-3.052602,-13.589341,2.0739372
1421715358406.00,-3.0874796,-14.33988,0.81310916
1421715358426.00,-2.405797,-13.973442,-0.703537
1421715358446.00,-2.0493882,-13.249547,-1.26472
1421715358466.00,-1.7524059,-12.293186,-1.7202228
1421715358487.00,-1.3202546,-11.783346,-2.2043161
1421715358506.00,-0.76670563,-12.857363,-2.9422815
1421715358527.00,-0.30880782,-13.475577,-4.449497
1421715358546.00,0.52735335,-13.691728,-7.577093
1421715358566.00,0.37661684,-12.843442,-8.745863
1421715358634.00,-0.72703815,-12.229269,1.472937
1421715358635.00,-1.5112573,-14.416969,5.392686
1421715358636.00,-5.647007,-10.818603,3.1451097
1421715358646.00,-4.777166,-10.590776,4.8395863
1421715358667.00,-1.194516,-12.126433,1.1678714
1421715358687.00,1.2560381,-10.193952,-5.592071
1421715358706.00,1.1903247,-8.51639,-4.8798523
1421715358727.00,-1.024769,-6.955586,-1.3274395
1421715358746.00,-1.6434325,-6.720275,0.7158115
1421715358768.00,-1.4521303,-6.846912,-0.47436357
1421715358786.00,-0.9316626,-6.514154,-1.5684384
1421715358806.00,-1.2322376,-4.816684,-1.8188677
1421715358826.00,-2.4968078,-3.325335,-1.7904267
1421715358846.00,-2.7186465,-2.618355,-2.4156766
1421715358867.00,-2.7038274,-2.2754183,-3.216062
1421715358887.00,-2.7795699,-1.7387842,-4.273613
1421715358906.00,-2.3851402,-1.7286054,-4.7548623
1421715358993.00,-1.4762301,-2.1600082,-4.3974056
1421715358994.00,-0.069455564,-3.0672715,-5.0422645
1421715358995.00,0.7345226,-3.7646713,-5.776488
1421715358996.00,0.2335144,-3.480712,-6.510561
1421715359007.00,-1.2153227,-2.895878,-7.802375
1421715359026.00,-2.061513,-3.85673,-10.106683
1421715359046.00,-3.7993991,-9.430689,-10.928474
1421715359066.00,-2.9053085,-15.137721,-9.235345
1421715359086.00,-3.3025823,-11.429782,-3.6320472
1421715359108.00,-3.4910402,-6.111491,-4.556824
1421715359130.00,-3.0744567,-5.241949,-5.484595
1421715359147.00,-2.7710376,-8.460107,-5.4317546
1421715359167.00,-3.7387753,-11.436667,-4.4577303
1421715359186.00,-3.519631,-12.20008,-4.182303
1421715359206.00,-2.5610244,-11.194771,-3.7544925
1421715359227.00,-2.3074517,-9.723929,-2.5414152
1421715359282.00,-2.2176385,-8.644524,-1.6726217
1421715359283.00,-1.6606467,-8.668922,-1.513802
1421715359293.00,-0.90501803,-9.383836,-0.6120772
1421715359307.00,-0.43619293,-9.79548,-0.39368135
1421715359326.00,-0.15238312,-10.074949,0.0889151
1421715359346.00,0.676593,-10.172247,0.7634125
1421715359368.00,1.2064911,-9.773625,0.8349637
1421715359388.00,1.5817608,-9.73306,0.7550299
1421715359407.00,1.8781444,-10.289004,0.29249176
1421715359427.00,1.4718891,-9.699829,-0.8440947
1421715359446.00,1.0654843,-9.062754,-1.3241464
1421715359467.00,1.0333012,-8.744665,-1.259481
1421715359486.00,1.3174105,-9.043743,-0.7776329
1421715359507.00,1.3048366,-9.569151,-1.1505075
1421715359526.00,0.38005966,-9.013955,-1.8468595
1421715359546.00,-0.34982255,-9.2416315,-1.669628
1421715359567.00,-1.0032138,-9.69953,-1.2537928
1421715359633.00,-1.108894,-9.498797,-0.26180556
1421715359634.00,-0.5932164,-9.845476,-0.8523276
1421715359635.00,-0.5851332,-9.361532,-0.74949145
1421715359646.00,-0.61222684,-8.80469,0.3198848
1421715359669.00,0.34862503,-8.667276,0.06780899
1421715359686.00,1.2413685,-9.214239,-0.32871643
1421715359707.00,1.1888279,-8.904084,0.009729767
1421715359727.00,0.61252624,-8.6346445,-1.0562036
1421715359746.00,0.04101471,-9.354497,-1.169967
1421715359767.00,-0.33620086,-9.924961,-0.38005966
1421715359787.00,-1.2777429,-10.203531,1.5269747
1421715359806.00,-1.4747332,-11.417058,2.2137465
1421715359827.00,0.052241363,-13.490546,3.263214
1421715359846.00,0.82897615,-14.344221,3.366649
1421715359867.00,-0.8342152,-14.670094,0.7099736
1421715359886.00,-2.0989351,-14.588963,0.051193543
1421715359948.00,-2.4219635,-13.451328,-0.3384462
1421715359949.00,-2.259102,-12.380006,-1.0585986
1421715359950.00,-2.0022364,-11.861184,-1.0380913
1421715359966.00,-1.9107765,-12.280462,-1.0862911
1421715359987.00,-1.4865587,-12.824282,-2.2778132
1421715360011.00,-0.48349458,-12.322675,-4.736151
1421715360026.00,0.30746064,-12.17553,-6.994954
1421715360047.00,-0.72419405,-11.913875,-3.9356158
1421715360067.00,-0.7563771,-11.197315,6.2686644
1421715360087.00,-1.4555731,-12.446318,3.460354
1421715360110.00,-2.5045917,-10.412348,-0.032332763
1421715360128.00,-1.3189073,-10.30502,0.69919604
1421715360148.00,0.47810578,-11.216775,0.7662566
1421715360168.00,0.5878276,-9.142688,-1.7881814
1421715360188.00,-0.107925564,-7.940687,-2.548151
1421715360260.00,-0.86355424,-7.669152,-1.6328045
1421715360261.00,-1.3995895,-6.872209,-1.1475137
1421715360266.00,-1.8785934,-6.9046917,-0.087118834
1421715360267.00,-1.3341756,-7.2625976,-1.1569442
1421715360287.00,-0.9873468,-7.1331167,-2.5484505
1421715360307.00,-1.2799883,-6.431825,-2.5252488
1421715360327.00,-1.7911752,-5.791756,-3.0726604
1421715360347.00,-2.0883074,-5.443131,-3.6452198
1421715360367.00,-1.575324,-4.9243097,-3.8634658
1421715360386.00,-1.0988649,-3.7555404,-3.892356
1421715360407.00,-1.7609382,-2.6753864,-4.7036686
1421715360427.00,-1.7895286,-2.5210574,-4.8970666
1421715360447.00,-1.2418176,-2.8557615,-4.753066
1421715360466.00,-0.5019063,-3.0567935,-5.551206
1421715360487.00,-0.101189576,-3.3953893,-5.892197
1421715360508.00,-0.4393364,-3.4236803,-6.2969556
1421715360528.00,-1.1476635,-4.382287,-9.222771
1421715360598.00,-2.2155428,-8.614885,-11.248808
1421715360599.00,-2.592459,-11.54624,-9.482182
1421715360600.00,-1.4859599,-11.906839,-4.783752
1421715360611.00,-3.3985326,-7.2826557,-2.7734327
1421715360629.00,-3.0448182,-5.8401055,-4.7325587
1421715360647.00,-1.8287472,-7.068002,-6.328989
1421715360667.00,-2.8773165,-9.414522,-5.6842794
1421715360686.00,-3.3000376,-10.842703,-5.449717
1421715360706.00,-2.5394692,-11.274105,-4.987628
1421715360727.00,-1.8083894,-10.304871,-3.6024086
1421715360747.00,-1.9288888,-9.388776,-1.9612216
1421715360768.00,-1.9925065,-9.026829,-1.658551
1421715360787.00,-1.6293617,-9.397608,-2.3049068
1421715360806.00,-1.2130774,-9.680819,-2.450105
1421715360827.00,-1.2722044,-10.217752,-1.8537451
1421715360847.00,-1.115181,-9.938882,-0.3079097
1421715360867.00,-0.25297394,-9.474098,1.2506492
1421715360887.00,0.3134482,-9.784403,1.6699274
1421715360949.00,0.8927435,-10.045161,1.4828165
1421715360953.00,1.317111,-10.302027,0.59635985
1421715360957.00,1.3313315,-10.1438055,0.43754014
1421715360968.00,0.79260176,-9.334888,-0.11106903
1421715360989.00,1.1952645,-9.061108,-0.4869374
1421715361006.00,1.3986914,-8.818013,-0.4963678
1421715361027.00,1.4335688,-8.975037,-0.4125421
1421715361046.00,1.0862911,-9.349109,-0.74544984
1421715361067.00,0.37916154,-9.307795,-1.4837146
1421715361087.00,0.060923308,-9.444759,-1.4397061
1421715361107.00,-0.18830842,-10.158176,-1.0325528
1421715361128.00,-0.53423905,-9.726624,0.1818718
1421715361149.00,-1.0331515,-9.975256,0.4552034
1421715361170.00,-0.88989943,-9.677376,-0.70174074
1421715361188.00,-0.3632945,-9.207054,-0.5438191
1421715361208.00,0.22378464,-9.114845,-0.10807525
1421715361281.00,0.33605117,-9.541458,-0.04790039
1421715361282.00,-0.041613463,-9.301059,-0.32332763
1421715361283.00,0.29638368,-9.0885,-0.83122146
1421715361297.00,0.35895357,-9.160351,-0.57255936
1421715361307.00,0.45161086,-9.202264,-0.16510665
1421715361327.00,0.1910028,-9.439221,-0.41044647
1421715361347.00,-0.3767665,-9.980945,0.27048752
1421715361370.00,-0.028889922,-10.197544,1.6902851
1421715361398.00,0.35670823,-10.904374,2.5697062
1421715361407.00,0.6078859,-11.865974,2.3552024
1421715361427.00,-0.17169297,-11.543844,1.6320561
1421715361447.00,-0.93600357,-12.024196,1.3298346
1421715361466.00,-1.3045372,-13.653856,0.96010345
1421715361487.00,-1.0731184,-14.27776,0.71326673
1421715361510.00,-0.76461,-14.515465,-0.2881508
1421715361581.00,-0.91609496,-14.022241,-1.2271482
1421715361582.00,-1.3394147,-13.161081,-2.1580622
1421715361583.00,-1.5392491,-12.243639,-2.8849506
1421715361594.00,-1.4768289,-12.027788,-3.218607
1421715361607.00,-0.9699829,-12.143797,-3.8366716
1421715361627.00,-0.2507286,-12.470568,-4.853657
1421715361647.00,-0.064964905,-12.591815,-2.7747798
1421715361667.00,0.017363891,-13.904884,3.494034
1421715361686.00,-1.4600638,-14.3307495,0.6478528
1421715361706.00,-3.4194891,-11.381283,-0.993484
1421715361727.00,-2.284699,-10.929522,0.4830455
1421715361747.00,-0.52121615,-11.532318,1.9496956
1421715361766.00,-0.18247055,-9.809252,0.017214203
1421715361787.00,0.4258644,-8.648416,-0.82493454
1421715361807.00,-0.4872368,-7.7043285,-1.2808864
1421715361827.00,-1.2701088,-6.9768414,-1.1294014
1421715361846.00,-1.9248472,-6.364914,-0.1646576
1421715361900.00,-1.9034418,-5.5048027,-0.57929534
1421715361901.00,-1.6455281,-4.4682083,-1.7561481
1421715361919.00,-2.1136048,-3.7297938,-2.0835173
1421715361927.00,-2.5565336,-3.0139823,-2.3402336
1421715361947.00,-3.0282028,-2.6276357,-2.902165
1421715361967.00,-2.7262807,-2.417922,-4.122577
1421715361987.00,-2.2897882,-2.564617,-4.8467712
1421715362007.00,-1.2939093,-2.8240273,-4.7690825
1421715362034.00,-0.11600876,-3.3202455,-5.0861235
1421715362047.00,0.62031007,-3.8119729,-5.1542315
1421715362067.00,0.23710693,-3.3388069,-5.916297
1421715362087.00,-0.8927435,-3.2524366,-8.23288
1421715362107.00,-2.5391698,-5.5477633,-9.913435
1421715362127.00,-4.937632,-9.822274,-10.047406
1421715362147.00,-3.3811688,-12.313245,-8.200996
1421715362167.00,-1.7175283,-10.114616,-4.7077103
1421715362238.00,-2.561623,-6.4201493,-4.4312353
1421715362239.00,-2.1198916,-6.1456203,-4.942871
1421715362240.00,-3.028053,-7.3554044,-4.7427373
1421715362250.00,-3.919599,-9.473799,-5.134922
1421715362266.00,-4.129912,-10.914104,-5.804779
1421715362287.00,-2.9782069,-11.304193,-4.830156
1421715362307.00,-2.2873933,-10.150093,-3.052602
1421715362628.00,-1.9267932,-8.98297,-2.0646565
1421715362629.00,-1.8357825,-8.898545,-1.8953586
1421715362631.00,-1.3692027,-9.570947,-1.3870157
1421715362634.00,-0.5920189,-10.401271,-1.017584
1421715362638.00,0.27048752,-10.704241,-0.9092093
1421715362642.00,0.39592665,-10.12255,-0.7200028
1421715362643.00,0.41134462,-9.5931015,0.03727249
1421715362645.00,0.7228468,-9.673484,0.50490004
1421715362646.00,1.0118958,-9.8849945,0.8431966
1421715362647.00,1.5386504,-10.782079,0.36434233
1421715362649.00,0.7762857,-10.298584,-0.45220962
1421715362650.00,0.7961943,-9.6002865,-0.64695466
1421715362651.00,0.79769117,-8.767118,-0.80472654
1421715362653.00,0.44547364,-8.799602,-1.9124231
1421715362654.00,-0.04819977,-9.082213,-1.5744259
1421715362672.00,4.49E-04,-9.661658,-1.6230748
1421715362727.00,-0.30476624,-9.344468,-0.4035608
1421715362728.00,-0.5854326,-8.572972,-0.51178575
1421715362729.00,-0.984353,-8.59348,-0.9369017
1421715362795.00,-0.72868466,-8.974288,0.17678238
1421715362796.00,0.2836601,-9.163045,-0.5095404
1421715362797.00,1.0982661,-8.838221,-1.6561561
1421715362812.00,1.3193564,-9.115444,-1.4242882
1421715362873.00,0.36718643,-9.148825,-0.11002121
1421715362874.00,-0.3332071,-9.175919,1.0118958
1421715362875.00,-0.40820113,-10.771002,0.44966492
1421715362887.00,0.32976425,-12.3647375,1.99565
1421715362907.00,0.9057664,-13.361365,2.845882
1421715362928.00,-0.81535447,-13.473632,2.0210972
1421715362947.00,-2.7529252,-14.292728,1.1026071
1421715362967.00,-2.8865974,-14.251564,-0.6783893
1421715362988.00,-2.1598585,-13.362562,-1.540746
1421715363010.00,-1.7872833,-12.963043,-1.1416758
1421715363027.00,-1.5428417,-12.527898,-1.0235715
1421715363047.00,-0.89394104,-12.275224,-1.6042141
1421715363067.00,-0.55265075,-12.10383,-2.911745
1421715363087.00,-0.5083429,-11.749067,-4.361181
1421715363115.00,-0.23201752,-11.595487,-6.131849
1421715363127.00,0.15642472,-11.68515,-3.0885274
1421715363147.00,0.0291893,-12.446617,4.088897
1421715363213.00,-0.8273296,-13.662988,0.5090913
1421715363214.00,-3.6498601,-11.60866,-1.5045214
1421715363215.00,-3.6028578,-10.911859,2.3441253
1421715363227.00,-1.0162368,-11.466605,1.6411872
1421715363247.00,-0.15028748,-10.134226,-2.3692732
1421715363267.00,0.7086264,-8.852591,-2.511627
1421715363287.00,-0.022902375,-8.181237,-1.7986597
1421715363307.00,-0.60040146,-7.4982076,-0.56028485
1421715363327.00,-1.0897338,-7.3024144,-0.16810043
1421715363347.00,-1.119971,-6.490353,-0.45804748
1421715363369.00,-1.5393988,-5.683082,-1.8308427
1421715363388.00,-2.0457957,-5.018614,-2.402504
1421715363407.00,-2.4415727,-4.1709266,-2.9699738
1421715363428.00,-2.7318192,-3.7588334,-3.129093
1421715363447.00,-2.545307,-3.30363,-3.578758
1421715363469.00,-1.7069005,-2.7393036,-4.583768
1421715363535.00,-1.5396981,-2.8563602,-5.6862254
1421715363536.00,-0.9714798,-2.9324021,-4.8600936
1421715363537.00,-0.08981323,-2.8398943,-4.9455657
1421715363547.00,0.07978409,-2.6226962,-5.5184245
1421715363567.00,-0.41433838,-2.67374,-5.9627004
1421715363587.00,-1.2997471,-3.0761032,-7.6645117
1421715363607.00,-1.9920574,-5.7966957,-11.138039
1421715363627.00,-2.961292,-10.25742,-13.45986
1421715363647.00,-2.69769,-10.721604,-8.822503
1421715363667.00,-1.7720151,-9.4000025,-3.7423677
1421715363687.00,-4.0935373,-5.154531,-3.514392
1421715363707.00,-2.1209395,-6.3792844,-6.5464864
1421715363727.00,-2.4225624,-8.75185,-5.672903
1421715363747.00,-3.7911663,-11.298355,-5.788014
1421715363767.00,-3.6395316,-11.242521,-5.3742743
1421715363787.00,-3.257975,-9.993967,-4.192332
1421715363808.00,-2.6954448,-8.59812,-2.9912298
1421715363866.00,-2.3878345,-8.056247,-1.9878662
1421715363867.00,-2.417922,-8.253238,-1.6233742
1421715363868.00,-1.9666104,-9.389075,-1.5034735
1421715363887.00,-0.88166654,-10.27643,-1.4016852
1421715363907.00,-0.28470793,-10.895692,-1.6009209
1421715363927.00,-0.33889526,-9.870624,-0.4670288
1421715363947.00,-0.17423767,-8.928633,-0.048499145
1421715363967.00,0.27662477,-9.224867,0.73601943
1421715363987.00,0.87942123,-10.201286,1.2389735
1421715364007.00,1.4920971,-10.738369,1.0195298
1421715364027.00,1.6615448,-10.555,-0.26629624
1421715364047.00,1.4266832,-9.3630295,-0.59156984
1421715364067.00,1.169967,-9.064251,-0.468376
1421715364088.00,1.4265335,-9.303004,-0.9318123
1421715364110.00,1.1166779,-9.957443,-1.8916163
1421715364128.00,0.6442602,-9.294322,-1.9294876
1421715364212.00,-0.033081207,-8.48286,-1.0413845
1421715364214.00,-0.18067428,-9.278605,-0.46253815
1421715364215.00,-0.37107834,-9.499695,0.02454895
1421715364216.00,-1.3988411,-8.8476515,0.012274475
1421715364228.00,-1.3250445,-9.062754,-1.275348
1421715364247.00,-0.6101312,-9.320817,-0.7978409
1421715364267.00,0.2969824,-8.804091,-0.2228865
1421715364292.00,1.2719051,-9.013058,-1.2343332
1421715364312.00,1.7663269,-9.0551195,-0.9331595
1421715364334.00,1.1130853,-8.691376,-0.69201094
1421715364347.00,0.475112,-9.344468,-0.8336165
1421715364367.00,-0.38005966,-10.689122,0.19818787
1421715364387.00,-0.44637176,-12.05114,2.1414468
1421715364407.00,0.33994308,-13.375436,3.0966105
1421715364427.00,-0.594863,-14.199173,1.6631913
1421715364447.00,-2.051035,-15.145505,0.941542
1421715364467.00,-2.3802004,-14.509328,-0.2296225
1421715364529.00,-2.3930736,-13.785732,-0.9201366
1421715364530.00,-2.5577312,-13.289215,-1.0502161
1421715364531.00,-2.1763244,-12.681928,-1.2780423
1421715364547.00,-1.4365627,-11.992162,-2.3302042
1421715364567.00,-0.81415695,-11.682306,-3.5221756
1421715364587.00,-0.32467484,-11.903097,-5.305567
1421715364607.00,0.17274079,-11.874357,-5.600304
1421715364628.00,0.42017624,-12.618609,-0.2586621
1421715364650.00,-0.31674135,-12.268488,2.7789712
1421715364667.00,-2.442321,-12.228071,0.7047345
1421715364687.00,-5.1003437,-10.786719,0.9051677
1421715364708.00,-3.8019438,-9.746681,2.9957204
1421715364727.00,-0.97462326,-10.022708,0.50759447
1421715364747.00,0.9409433,-9.39147,-3.7857773
1421715364767.00,0.7500902,-8.772358,-3.4386492
1421715364831.00,-0.53169435,-7.916737,-1.2084371
1421715364832.00,-1.645079,-7.194938,0.1911525
1421715364833.00,-1.7049545,-6.9928584,-0.78945833
1421715364847.00,-1.8285974,-6.2691135,-1.771117
1421715364867.00,-2.2574556,-5.8420515,-2.1776714
1421715364887.00,-2.5731492,-4.983886,-3.080145
1421715364907.00,-2.5623715,-4.232748,-3.3937426
1421715364930.00,-2.1604574,-3.2958462,-3.2091765
1421715364947.00,-2.2052143,-2.0001407,-3.7959564
1421715364967.00,-1.9544857,-1.7431252,-5.0572333
1421715364987.00,-1.5967296,-1.771117,-4.6075687
1421715365007.00,-0.92028624,-1.7904267,-4.9288006
1421715365027.00,-0.015268249,-2.42361,-5.4087024
1421715365047.00,-0.028740235,-3.0692174,-6.370752
1421715365073.00,-0.4631369,-4.6536727,-9.751921
1421715365087.00,-2.2152433,-8.025112,-11.871364
1421715365107.00,-4.3921666,-7.9689784,-9.310489
1421715365172.00,-3.285368,-9.58876,-7.497908
1421715365173.00,-3.0371842,-9.445957,-3.682642
1421715365174.00,-4.1405396,-5.9300685,-4.801715
1421715365187.00,-2.7205925,-6.9537897,-6.762038
1421715365207.00,-3.9694455,-8.781788,-5.3154464
1421715365227.00,-4.7999187,-10.757679,-4.8912287
1421715365247.00,-4.205654,-11.071426,-4.853956
1421715365270.00,-3.4832566,-10.56488,-4.2881327
1421715365293.00,-3.0253587,-9.594448,-2.6764343
1421715365319.00,-2.9310548,-8.711434,-1.8815873
1421715365329.00,-2.665058,-9.067544,-1.6904347
1421715365348.00,-1.7877324,-10.095606,-0.8518785
1421715365368.00,-0.5448669,-10.428813,-0.6500981
1421715365387.00,0.08053253,-10.537337,-0.85127974
1421715365407.00,0.5535489,-9.938882,-0.042212218
1421715365427.00,1.4452446,-9.496252,0.6807843
1421715365490.00,1.5179933,-9.703272,0.39592665
1421715365491.00,1.8998493,-10.092163,0.7310797
1421715365492.00,1.8290465,-10.294842,0.1552272
1421715365513.00,1.1491603,-9.282796,-0.81670165
1421715365527.00,0.98195803,-8.986563,-1.4870077
1421715365550.00,1.1084449,-9.012609,-1.640289
1421715365567.00,1.2295432,-9.464069,-2.0044816
1421715365587.00,0.85756665,-9.168883,-2.498155
1421715365612.00,0.26854157,-9.155262,-1.8271005
1421715365628.00,-0.02574646,-9.341025,-1.2678635
1421715365647.00,-0.61776537,-9.215286,-0.90277267
1421715365667.00,-0.7598199,-9.277557,-1.1403286
1421715365687.00,-0.66910857,-9.1869955,-1.1376343
1421715365707.00,-0.9701326,-8.40098,-0.35386413
1421715365728.00,-0.59665924,-8.508756,-0.55833894
1421715365747.00,0.24593857,-9.347911,-0.68048495
1421715365803.00,0.7161108,-9.442365,-1.1729608
1421715365804.00,0.17723145,-8.797655,-0.8876541
1421715365808.00,-0.6860234,-8.983568,-0.9111552
1421715365827.00,-0.9871971,-10.114616,0.17603393
1421715365847.00,0.054037627,-12.547807,3.0966105
1421715365867.00,1.0141411,-13.53695,2.390529
1421715365887.00,-0.99498093,-13.205239,1.0666819
1421715365907.00,-2.9738657,-14.636414,1.6615448
1421715365928.00,-2.6596692,-14.804065,1.3292358
1421715365947.00,-2.1713846,-13.573474,0.09744736
1421715365967.00,-2.1483326,-13.066777,-0.58438474
1421715365988.00,-1.371448,-12.423565,-0.8346643
1421715366007.00,-0.45744872,-11.806099,-2.2414389
1421715366027.00,-0.048648834,-11.549383,-3.8154159
1421715366047.00,0.5243596,-11.529474,-5.129234
1421715366067.00,0.7472461,-11.486065,-5.761968
1421715366139.00,1.9065852,-12.192146,-3.7107835
1421715366139.00,2.052382,-9.880354,6.4782286
1421715366140.00,0.24069947,-9.913136,9.049132
1421715366153.00,-2.5809329,-9.832154,4.909341
1421715366167.00,-2.222129,-9.02144,2.2674847
1421715366187.00,-1.2247531,-8.765622,-5.3355045
1421715366208.00,1.9675086,-9.929751,-4.980443
1421715366227.00,1.3114228,-8.284073,0.2402504
1421715366247.00,0.7165599,-7.237749,1.2663666
1421715366267.00,-0.0477507,-6.5704365,0.0291893
1421715366288.00,-1.2564871,-6.531667,0.38919067
1421715366307.00,-2.03412,-6.374644,0.016465759
1421715366327.00,-1.4102174,-6.611601,-0.84484315
1421715366347.00,-0.8735834,-6.8163753,-1.0484198
1421715366367.00,-0.8855585,-6.82371,-0.6050418
1421715366388.00,-0.8168514,-6.852151,-0.2826123
1421715366407.00,-0.7807764,-6.6853976,-0.15073654
1421715366427.00,-0.9758208,-6.0189834,-0.3528163
1421715366449.00,-0.90726334,-4.659211,-1.4980847
1421715366509.00,-0.703537,-4.24637,-2.5259972
1421715366510.00,0.14175522,-5.6247034,-3.873944
1421715366511.00,0.5005591,-7.960147,-5.482649
1421715366529.00,1.7381854,-11.489358,-6.0251207
1421715366547.00,2.3426285,-13.598322,-5.7646623
1421715366567.00,2.0712428,-13.9494915,-6.1185265
1421715366587.00,0.29773086,-11.379636,-4.5134144
1421715366607.00,-0.7388635,-9.690399,-3.663332
1421715366627.00,-1.5884967,-15.060631,-6.2821364
1421715366647.00,3.2000456,-18.635199,-4.9744554
1421715366667.00,0.16630417,-8.791069,1.3504916
1421715366687.00,-7.9516144,-2.044299,6.0535617
1421715366707.00,-10.11761,-2.9722192,4.1626935
1421715366727.00,-7.81435,-4.359235,0.9259744
1421715366747.00,-5.0829797,-7.8562627,0.12663665
1421715366808.00,-1.2130774,-12.018059,3.685037
1421715366809.00,2.8418403,-16.40723,0.9473799
1421715366810.00,5.7507415,-13.789624,-0.75742495
1421715366828.00,3.5808535,-9.085656,0.33799714
1421715366847.00,1.9844234,-9.412277,-0.087118834
1421715366867.00,1.3430072,-9.965826,-0.10208771
1421715366887.00,1.4230907,-10.658136,0.51657575
1421715366908.00,1.167572,-10.270592,0.3607498
1421715366927.00,0.16899857,-9.2818985,-0.4179309
1421715366947.00,-0.93480605,-8.9204,1.4558725
1421715366967.00,-1.9893631,-9.237591,2.1671934
1421715366988.00,-2.891088,-8.850196,1.2982503
1421715367007.00,-2.349065,-8.643625,0.12768447
1421715367027.00,-1.5244299,-9.075178,0.036973115
1421715367047.00,-1.3326787,-9.172476,0.77972853
1421715367111.00,-1.2901671,-9.360186,1.2204121
1421715367112.00,-1.18778,-9.135054,0.9199869
1421715367113.00,-0.7807764,-9.155262,0.4245172
1421715367127.00,-0.33739838,-9.531429,0.3689827
1421715367147.00,-0.09639954,-9.81973,0.34188902
1421715367167.00,0.16256195,-10.035131,0.4263135
1421715367187.00,0.39757323,-10.275083,-0.122145995
1421715367207.00,0.36703673,-10.116413,-0.68722093
1421715367227.00,-0.042361908,-10.212064,0.026644593
1421715367247.00,-0.7442523,-9.976454,0.7794292
1421715367267.00,-0.8307724,-10.164014,-0.70263886
1421715367287.00,0.5188211,-11.258089,-1.305136
1421715367307.00,1.9016455,-12.751384,-0.09610016
1421715367327.00,3.2263906,-14.149177,1.6733702
1421715367352.00,2.4525,-14.420114,2.3287075
1421715367373.00,-0.22273682,-12.141402,-1.0602452
1421715367387.00,-1.9429595,-10.784324,-2.419269
1421715367444.00,-1.0620415,-10.479857,-1.7383351
1421715367446.00,0.5471123,-10.307416,1.4596148
1421715367455.00,1.8621277,-10.703342,1.6449294
1421715367467.00,2.550995,-11.436667,1.9673588
1421715367488.00,2.4445665,-11.14223,3.9218445
1421715367507.00,1.9980451,-10.987601,3.1243029
1421715367527.00,0.69350785,-10.62266,1.9305354
1421715367551.00,0.041763153,-10.627899,2.8794122
1421715367572.00,-0.395777,-10.762918,4.577631
1421715367588.00,-1.3820759,-9.492959,1.583557
1421715367607.00,-1.3100756,-9.060658,0.626597
1421715367628.00,-1.2729529,-9.04045,-0.17842895
1421715367647.00,-0.8696915,-9.434431,0.7195537
1421715367667.00,-0.33096176,-9.20855,1.9609222
1421715367688.00,-0.31374756,-8.480764,1.6236736
1421715367707.00,-0.93360853,-7.8453355,1.255589
1421715367728.00,-1.7269588,-7.454648,0.7961943
1421715367794.00,-2.5999434,-7.0888085,-0.1965413
1421715367795.00,-2.8779154,-6.570736,-1.0792557
1421715367796.00,-2.9243188,-6.5223866,-1.4073733
1421715367808.00,-2.76505,-7.3967185,-1.9366727
1421715367827.00,-2.3287075,-8.568631,-2.074536
1421715367847.00,-1.6357983,-9.30061,-2.0282822
1421715367868.00,-0.28994706,-9.865086,-2.1725821
1421715367887.00,0.63243484,-10.950029,-3.473377
1421715367907.00,1.1690689,-12.4265585,-7.3088512
1421715367928.00,0.98674804,-12.99343,-7.8646455
1421715367947.00,0.085023195,-10.490635,-4.0647974
1421715367967.00,-0.71476364,-8.365205,-1.6899856
1421715367987.00,-0.8469388,-7.639214,-0.6637198
1421715368007.00,-0.56342834,-7.2253246,-1.0283616
1421715368028.00,-0.104931794,-12.217593,0.3661386
1421715368047.00,-1.6042141,-18.464851,-1.1150312
1421715368097.00,-2.433789,-13.412559,0.82298857
1421715368098.00,-3.7977526,-4.046535,3.5598972
1421715368107.00,-5.1910553,-3.076253,3.9477406
1421715368128.00,-4.810097,-4.6616063,3.867807
1421715368148.00,-3.54897,-6.9060388,2.8018734
1421715368167.00,-1.8863772,-11.429632,3.8296363
1421715368188.00,0.80337936,-16.000378,4.2435255
1421715368211.00,4.5231442,-13.699811,-1.8594333
1421715368231.00,4.0748262,-10.462792,-6.5532227
1421715368247.00,1.5684384,-9.46347,-1.8559904
1421715368267.00,-0.03397934,-9.583671,0.16360977
1421715368287.00,-1.9133213,-9.713151,0.21001327
1421715368307.00,-2.1387525,-9.531579,0.47765672
1421715368327.00,-1.305136,-9.346563,0.085023195
1421715368347.00,-0.7110214,-9.600586,0.013921051
1421715368428.00,-0.32557297,-9.738299,0.73841447
1421715368429.00,0.001347199,-9.964928,1.2548405
1421715368429.00,0.1950444,-10.055639,0.47062135
1421715368430.00,0.003592529,-9.916728,-0.6908134
1421715368447.00,-0.4779561,-9.744137,-0.72359526
1421715368468.00,-0.8825647,-9.66091,0.13337265
1421715368487.00,-1.0063573,-9.433233,0.67195266
1421715368508.00,-0.7167096,-9.180409,0.46628037
1421715368529.00,-0.43589357,-9.225765,-0.16525635
1421715368552.00,-0.16884887,-9.635762,-0.19758911
1421715368573.00,-0.28500733,-10.030342,0.15822098
1421715368588.00,-0.33410522,-9.692045,-0.1672023
1421715368609.00,-0.054187316,-9.036858,-0.28096572
1421715368627.00,0.041463777,-8.859327,-0.38724473
1421715368648.00,0.13037887,-9.168434,-0.1432521
1421715368668.00,0.16600479,-9.090896,0.2468367
1421715368764.00,0.09849518,-9.139994,0.60144925
1421715368765.00,-0.16839981,-9.784403,1.2549902
1421715368767.00,0.36718643,-11.161389,2.3415806
1421715368768.00,0.7961943,-11.952944,1.5004797
1421715368769.00,0.16091537,-12.454102,0.72419405
1421715368788.00,-1.0304571,-12.888498,0.6629713
1421715368808.00,-1.278192,-13.842315,0.32961455
1421715368828.00,-1.1277548,-14.381344,-0.08038285
1421715368849.00,-1.4632072,-14.09469,-0.6066884
1421715368875.00,-1.7887802,-13.489348,-1.0943742
1421715368903.00,-1.5582596,-12.670402,-1.4781761
1421715368910.00,-0.94423646,-11.818374,-1.9079324
1421715368929.00,-0.002993774,-11.779454,-1.6420853
1421715368949.00,0.4179309,-11.90624,-1.2222084
1421715368968.00,0.5777985,-11.78155,-1.2713063
1421715368994.00,0.6756949,-12.425511,-1.8010547
1421715369009.00,0.56028485,-13.150454,-0.82643145
1421715369092.00,0.2680925,-13.134437,0.20163071
1421715369092.00,-1.87066,-11.6683855,0.5295987
1421715369093.00,-3.3500335,-11.918216,-0.040565643
1421715369094.00,-2.086062,-12.402609,3.8737943
1421715369107.00,-0.03891907,-12.069851,-1.8618283
1421715369127.00,0.062270507,-9.655072,-1.3615686
1421715369147.00,-0.8322693,-8.284073,-0.41912842
1421715369167.00,-1.147364,-7.6005945,-0.44008484
1421715369193.00,-1.0111473,-7.0296817,-0.18726058
1421715369233.00,-1.0481204,-6.4152093,-0.43334883
1421715369246.00,-1.504671,-5.318889,-0.5860313
1421715369262.00,-2.0472927,-4.496799,-1.23104
1421715369267.00,-2.4586372,-4.1204815,-2.2586532
1421715369287.00,-2.36104,-3.4262252,-2.9353957
1421715369308.00,-1.8769469,-2.477947,-3.9568717
1421715369327.00,-1.6265177,-1.8657203,-5.228178
1421715369348.00,-1.213227,-1.9534378,-4.492907
1421715369369.00,-0.43170226,-3.0240116,-4.2809477
1421715369427.00,0.09131012,-3.3256342,-5.3914886
1421715369428.00,-0.24923173,-2.6774821,-6.581364
1421715369429.00,-1.9981947,-1.6597486,-8.106093
1421715369450.00,-3.3193474,-4.464616,-8.5910845
1421715369468.00,-3.8592746,-12.149335,-9.62244
1421715369488.00,-3.2254925,-16.036003,-5.75134
1421715369507.00,-1.900897,-11.865525,-5.1341734
1421715369527.00,-2.5806336,-6.841074,-4.192781
1421715369547.00,-3.2684531,-6.426436,-4.349954
1421715369567.00,-3.7880228,-9.012159,-4.164041
1421715369587.00,-3.8395157,-11.081456,-3.9589672
1421715369608.00,-2.5551865,-11.674522,-4.0906935
1421715369627.00,-1.3763878,-10.961406,-3.0898745
1421715369647.00,-1.1843371,-9.683363,-2.3402336
1421715369668.00,-1.2180171,-9.263487,-1.7976118
1421715369726.00,-0.5578899,-9.170829,-1.3795313
1421715369729.00,0.64321244,-9.377699,-0.8295749
1421715369730.00,1.3620176,-9.90116,-0.529449
1421715369748.00,1.0837463,-9.734407,-0.909359
1421715369768.00,0.8750803,-9.426198,-0.40251297
1421715369788.00,0.9786649,-9.75207,0.5553452
1421715369808.00,1.1178753,-9.865535,0.4538562
1421715369830.00,0.62135786,-9.760154,0.033679962
1421715369855.00,0.39592665,-9.743688,-0.036524046
1421715369883.00,0.69754946,-9.322165,-0.9156459
1421715369887.00,1.0883867,-8.748557,-1.5280224
1421715369908.00,1.4897021,-9.611064,-1.6449294
1421715369928.00,0.952619,-9.802366,-1.7601897
1421715369949.00,0.51403105,-9.664802,-1.9252963
1421715369968.00,0.31105316,-9.762099,-2.0463946
1421715369988.00,0.14175522,-9.581875,-0.9136999
1421715370049.00,-1.1681708,-8.819659,-0.12798385
1421715370050.00,-1.6482224,-8.985065,-0.6725514
1421715370051.00,-1.0205777,-8.759784,-0.5548961
1421715370068.00,0.5162764,-9.158555,-0.35790575
1421715370088.00,1.2762461,-9.190887,-1.3982424
1421715370108.00,1.273851,-9.171128,-1.085842
1421715370131.00,0.54636383,-8.854537,-0.3435356
1421715370149.00,0.17573456,-9.053024,-1.0382409
1421715370168.00,-0.25267455,-9.342821,-0.6584807
1421715370191.00,-0.6899153,-9.820029,0.6622229
1421715370207.00,-0.9017249,-10.860216,1.4831158
1421715370228.00,-0.05269043,-11.886033,3.0461655
1421715370247.00,0.7258406,-13.623021,4.4493475
1421715370269.00,0.25506958,-14.616804,2.7734327
1421715370288.00,-1.5076648,-14.972465,-0.24234603
1421715370310.00,-2.8416908,-14.521153,-0.5599855
1421715370398.00,-2.9542565,-13.190869,-1.2963043
1421715370399.00,-2.5301886,-12.237203,-2.0002904
1421715370400.00,-1.762435,-11.944262,-2.4504044
1421715370401.00,-1.0084529,-12.48374,-2.5764422
1421715370410.00,-0.48334488,-12.418476,-3.8907092
1421715370428.00,0.48139894,-12.679683,-6.48721
1421715370447.00,1.3232483,-12.795841,-5.5547986
1421715370467.00,1.2325369,-13.066478,0.49127838
1421715370490.00,-0.6044431,-12.372521,3.6410284
1421715370512.00,-4.35205,-11.312575,1.8380278
1421715370528.00,-4.0920405,-11.1690235,2.806963
1421715370547.00,-0.7445517,-11.601026,2.2903872
1421715370567.00,0.721799,-9.845027,-2.3614893
1421715370588.00,0.031883698,-7.930359,-3.4145494
1421715370608.00,-0.8586145,-8.143665,-1.3650115
1421715370628.00,-1.3424084,-7.3985147,-0.54875886
1421715370648.00,-1.5706837,-7.6577754,-0.58468413
1421715370714.00,-0.9982741,-7.1462893,-0.69575316
1421715370715.00,-1.0440788,-5.9378524,-1.1545491
1421715370716.00,-1.8155745,-4.785249,-1.9136206
1421715370727.00,-2.4218137,-3.6762054,-2.3070025
1421715370748.00,-2.5138724,-2.6279352,-2.9870384
1421715370768.00,-2.5860224,-2.03412,-4.1561074
1421715370788.00,-2.0005898,-1.9215541,-5.2046766
1421715370808.00,-0.78227323,-1.9898121,-4.1814046
1421715370830.00,0.26779312,-2.3507116,-4.27496
1421715370849.00,0.4288582,-2.8343558,-5.5106406
1421715370870.00,-0.6396199,-2.6490412,-6.529871
1421715370889.00,-2.1288729,-2.53902,-8.150102
1421715370909.00,-3.631149,-6.0517654,-8.328381
1421715370929.00,-3.4808614,-13.003309,-9.722732
1421715370949.00,-3.409011,-15.205231,-6.221662
1421715370968.00,-2.3658302,-11.511662,-5.4214263
1421715371031.00,-2.017355,-6.8258057,-5.1293836
1421715371032.00,-2.4228616,-6.171217,-4.4773393
1421715371033.00,-3.079546,-8.538394,-3.8640647
1421715371047.00,-3.5206788,-11.001672,-4.1852965
1421715371075.00,-2.4319925,-11.814781,-4.0183935
1421715371088.00,-1.314716,-10.949281,-3.1332843
1421715371107.00,-1.2496015,-9.696686,-2.26494
1421715371128.00,-1.5452367,-8.977731,-1.8384769
1421715371148.00,-1.0322534,-8.693622,-1.1409274
1421715371168.00,-0.18546432,-9.052276,-0.5292993
1421715371188.00,0.4209247,-9.492062,-0.17244141
1421715371208.00,0.90816146,-10.178833,0.5718109
1421715371228.00,1.7088464,-10.657238,0.9105565
1421715371248.00,2.2939796,-10.527458,-0.16136444
1421715371270.00,1.5925384,-9.571546,-0.40550673
1421715371289.00,0.22902374,-8.994495,-0.85756665
1421715371356.00,0.37062928,-9.047935,-0.5372328
1421715371357.00,0.6863228,-8.887468,-0.5683681
1421715371357.00,0.94079363,-9.038055,-1.0208771
1421715371368.00,1.1332933,-9.828562,-1.5477813
1421715371389.00,0.9515712,-10.018966,-1.4886544
1421715371407.00,0.10059082,-9.576785,-1.0678793
1421715371428.00,-0.26524842,-9.992471,-1.4426999
1421715371448.00,0.013322297,-9.668694,-1.0786569
1421715371468.00,-0.21974304,-8.948991,-0.3156935
1421715371488.00,-0.36853364,-9.216784,-0.21270767
1421715371508.00,-0.6879694,-8.7576885,-0.4087999
1421715371528.00,-0.8599617,-8.480016,0.69455564
1421715371548.00,-0.09265732,-9.076675,0.34473312
1421715371568.00,0.8662486,-9.587413,-0.76281375
1421715371588.00,1.6039146,-9.332044,-1.525328
1421715371609.00,0.91325086,-8.695867,-0.31165192
1421715371665.00,0.05718109,-9.188193,-0.10807525
1421715371673.00,-0.17423767,-10.251283,-0.035625916
1421715371674.00,-0.51807266,-10.912308,1.457519
1421715371688.00,-0.49816406,-11.581266,2.110611
1421715371708.00,0.07619156,-12.836856,2.6176066
1421715371728.00,-0.15732284,-13.227094,1.7973125
1421715371748.00,-0.9767189,-13.396392,0.05598358
1421715371767.00,-1.4356645,-13.728252,-0.3622467
1421715371787.00,-1.4467415,-13.733341,-0.31195128
1421715371808.00,-1.0979668,-13.02741,-0.43544447
1421715371828.00,-1.167123,-12.424912,-0.7589218
1421715371848.00,-1.1958632,-11.598331,-1.2760963
1421715371868.00,-0.9663904,-11.42095,-2.19279
1421715371889.00,-0.7496411,-11.731404,-2.4795938
1421715371907.00,-0.85816544,-11.446547,-2.6926007
1421715371928.00,-0.8529263,-11.309432,-2.775229
1421715371996.00,-1.169518,-11.174862,-0.4724176
1421715371997.00,-1.4172528,-10.557546,1.7762064
1421715371998.00,-1.3138179,-12.401561,-1.866768
1421715372008.00,-1.9788849,-12.210109,-1.6988173
1421715372029.00,-2.8581564,-10.7275915,0.32961455
1421715372048.00,-1.3623171,-10.541678,1.3111235
1421715372068.00,-0.7168593,-9.124276,-1.3567786
1421715372087.00,0.11466156,-8.438103,-2.646796
1421715372108.00,0.5737569,-9.538015,-1.7341439
1421715372128.00,0.3519182,-9.393267,-0.8279283
1421715372148.00,-0.65099627,-8.55022,-0.85936296
1421715372168.00,-1.0008187,-7.938741,-1.3590239
1421715372188.00,-1.0050101,-7.0900064,-2.2315595
1421715372209.00,-1.5284715,-5.904771,-2.2171893
1421715372228.00,-2.3447242,-4.750671,-2.4734564
1421715372247.00,-2.53902,-3.848946,-3.2123199
1421715372328.00,-2.0597167,-2.845433,-3.877387
1421715372329.00,-2.2002745,-2.0706441,-4.4954515
1421715372330.00,-2.3915768,-1.7618363,-5.117558
1421715372331.00,-1.4582676,-1.9576291,-4.362528
1421715372350.00,0.15702347,-2.6379642,-4.8615904
1421715372368.00,1.0892848,-3.2504907,-5.889353
1421715372391.00,0.011825409,-2.9244685,-7.523355
1421715372408.00,-2.1133053,-3.142565,-9.366921
1421715372429.00,-3.8693037,-6.9728,-9.962533
