time_milisec,ax,ay,az
1421716064965.00,-1.206042,4.296665,9.317075
1421716064991.00,-1.2368779,4.31822,8.878338
1421716065011.00,-1.3656102,4.546196,8.594078
1421716065019.00,-1.2111315,4.6518764,8.464298
1421716065039.00,-1.3046869,4.729265,8.549621
1421716065058.00,-1.3501923,4.811594,8.872649
1421716065079.00,-1.4217435,4.69813,8.77595
1421716065099.00,-1.26472,4.6955853,8.643026
1421716065119.00,-1.3037888,4.483776,8.494386
1421716065139.00,-1.3039384,4.6445417,8.768616
1421716065162.00,-1.1856843,4.597689,8.925939
1421716065179.00,-1.0168355,4.496799,8.8388195
1421716065198.00,-1.2343332,4.555327,8.614137
1421716065220.00,-1.1693683,4.4667115,8.632099
1421716065239.00,-1.1928694,4.5358677,8.625513
1421716065259.00,-1.099763,4.749324,8.754695
1421716065278.00,-1.3409115,4.643045,8.938961
1421716065299.00,-1.1711645,4.629573,8.908126
1421716065318.00,-1.2557387,4.644991,9.109457
1421716065338.00,-1.3183086,4.5934978,8.88657
1421716065361.00,-1.2391232,4.447701,8.894803
1421716065380.00,-1.2338841,4.6720843,8.867559
1421716065398.00,-1.1856843,4.482728,8.893307
1421716065418.00,-1.0657837,4.4840755,8.796457
1421716065439.00,-1.1488609,4.676725,8.782387
1421716065459.00,-1.1039543,4.6292734,8.812474
1421716065478.00,-1.155597,4.485722,8.7999
1421716065498.00,-1.2711567,4.5069776,8.947793
1421716065518.00,-1.3467494,4.4421625,8.860075
1421716065538.00,-1.2689112,4.545448,8.845106
1421716065559.00,-1.2189152,4.497547,8.7913685
1421716065579.00,-1.201701,4.590803,8.807684
1421716065598.00,-1.1346405,4.5393105,8.903485
1421716065618.00,-1.2970527,4.700675,8.735535
1421716065641.00,-1.2885205,4.6608577,8.735834
1421716065660.00,-1.3494438,4.659361,8.865764
1421716065680.00,-1.2244537,4.665049,8.912915
1421716065700.00,-1.2645704,4.577032,8.8388195
1421716065720.00,-1.2006532,4.615951,8.744066
1421716065740.00,-1.2274475,4.59245,8.678952
1421716065760.00,-1.1793975,4.5012894,8.888217
1421716065780.00,-1.0557545,4.4364743,8.827892
1421716065800.00,-1.1114388,4.550088,8.8757925
1421716065820.00,-1.074765,4.483177,9.01171
1421716065840.00,-1.1811937,4.660109,8.9683
1421716065860.00,-1.0229727,4.5840673,8.893157
1421716065880.00,-1.1765534,4.524791,8.920849
1421716065900.00,-1.2760963,4.5934978,8.934022
1421716065920.00,-1.1323951,4.485273,8.827443
1421716065940.00,-1.2102333,4.5503874,8.697214
1421716065960.00,-1.2118798,4.584217,8.645123
1421716065980.00,-1.2368779,4.5120673,8.854986
1421716065999.00,-1.0690769,4.384682,9.068892
1421716066018.00,-1.0711725,4.607419,8.702902
1421716066039.00,-1.2504996,4.567003,8.58884
1421716066058.00,-1.1823912,4.509672,8.79571
1421716066079.00,-1.1855347,4.474645,9.047485
1421716066099.00,-1.2269984,4.4152184,8.960815
1421716066118.00,-1.1961626,4.521348,8.830287
1421716066139.00,-1.1319461,4.5529323,8.676557
1421716066158.00,-1.0650352,4.6014314,8.702454
1421716066178.00,-1.2235556,4.535269,8.926238
1421716066199.00,-1.2293935,4.4869194,9.01665
1421716066219.00,-1.2272978,4.57793,8.865614
1421716066239.00,-1.1885284,4.6078677,8.794362
1421716066261.00,-0.9142987,4.635261,8.849747
1421716066278.00,-1.1388317,4.5888577,8.771909
1421716066299.00,-1.1561956,4.55892,8.831335
1421716066319.00,-1.1394305,4.6208906,8.80993
1421716066338.00,-1.2033477,4.736151,8.756491
1421716066358.00,-1.1573932,4.5942464,8.889713
1421716066378.00,-1.2268487,4.584217,8.85304
1421716066398.00,-1.2735516,4.810247,8.85289
1421716066418.00,-1.2558883,4.7554607,8.742869
1421716066437.00,-1.2713063,4.6533732,8.793164
1421716066458.00,-1.2076886,4.618496,8.730595
1421716066478.00,-1.1258088,4.609514,8.762628
1421716066498.00,-1.1891272,4.4161167,8.770112
1421716066518.00,-0.9891431,4.559818,8.773256
1421716066538.00,-1.0343491,4.6065207,8.844358
1421716066558.00,-0.9592053,4.540957,8.931926
1421716066580.00,-1.0292597,4.4867697,8.996592
1421716066600.00,-1.1499088,4.622388,8.951236
1421716066620.00,-1.2403207,4.7870455,8.737181
1421716066640.00,-1.2322376,4.6526246,8.897049
1421716066660.00,-1.2963043,4.614155,8.751551
1421716066680.00,-1.1644286,4.5777802,8.871451
1421716066700.00,-1.1135345,4.6647496,8.802445
1421716066720.00,-1.144969,4.6369076,8.779992
1421716066740.00,-1.1362871,4.535718,8.731343
1421716066760.00,-1.1222163,4.338877,8.790021
1421716066780.00,-1.2213103,4.69349,8.875194
1421716066808.00,-1.3724959,4.601581,8.915011
1421716066823.00,-1.2301419,4.7099557,8.824749
1421716066870.00,-1.3810282,4.5849657,8.747659
1421716066871.00,-1.0644364,4.858896,8.668922
1421716066879.00,-1.2645704,4.6027784,8.522228
1421716066904.00,-1.3591735,4.802613,8.900043
1421716066918.00,-1.2766951,4.6562176,8.95902
1421716066938.00,-1.2145743,4.630022,8.925639
1421716066958.00,-1.1573932,4.5021877,8.813822
1421716066983.00,-1.0726694,4.4721003,8.986862
1421716066999.00,-1.1187735,4.4036922,8.678054
1421716067080.00,-1.0981164,4.574487,8.865165
1421716067081.00,-1.2383748,4.526587,8.834628
1421716067081.00,-1.2433145,4.5128155,9.013356
1421716067086.00,-1.2642709,4.4247985,8.9955435
1421716067130.00,-1.2623249,4.5205994,8.828791
1421716067130.00,-1.2963043,4.5593686,8.669072
1421716067187.00,-1.2362791,4.6806164,8.726104
1421716067189.00,-1.2705579,4.6038265,8.979078
1421716067189.00,-1.2617263,4.546196,8.841663
1421716067233.00,-1.3169614,4.5074267,8.926837
1421716067233.00,-1.3659096,4.4753933,8.993897
1421716067314.00,-1.081052,4.482728,8.919801
1421716067315.00,-1.1636801,4.58766,8.932375
1421716067316.00,-1.0472223,4.4758425,8.764424
1421716067318.00,-1.143023,4.669839,8.982521
1421716067319.00,-1.1776012,4.6536727,9.041798
1421716067377.00,-1.0856923,4.5276346,8.910071
1421716067378.00,-1.2332854,4.4137216,8.797056
1421716067379.00,-1.3528867,4.45788,8.717871
1421716067442.00,-1.2804374,4.62119,8.735834
1421716067442.00,-1.337319,4.55892,8.951535
1421716067443.00,-1.3127701,4.580325,8.980874
1421716067470.00,-1.1723621,4.5634103,8.870853
1421716067531.00,-1.2976515,4.641847,8.66518
1421716067532.00,-1.3287867,4.6898975,8.6153345
1421716067533.00,-1.3681549,4.61161,8.820408
1421716067591.00,-1.389261,4.5921507,9.087303
1421716067592.00,-1.2946577,4.573889,8.878936
1421716067593.00,-1.2901671,4.7148952,8.691525
1421716067610.00,-1.1005114,4.7086086,8.769215
1421716067657.00,-1.2740006,4.590803,8.85289
1421716067658.00,-1.2747492,4.675677,8.637039
1421716067658.00,-1.4377601,4.7201343,8.821755
1421716067712.00,-1.1999048,4.7229786,8.80993
1421716067712.00,-1.4367124,5.0558863,7.5356297
1421716067722.00,-1.5084132,5.2157536,8.374036
1421716067770.00,-1.3980926,4.6369076,9.166787
1421716067771.00,-1.5283219,4.6421466,8.977731
1421716067796.00,-1.5322137,4.705465,9.095237
1421716067797.00,-1.4459931,4.720883,9.307645
1421716067844.00,-1.2567865,4.7942305,8.695867
1421716067845.00,-1.305136,4.935686,8.400681
1421716067904.00,-1.269061,4.9644265,8.406369
1421716067905.00,-1.1400293,4.915628,8.490344
1421716067905.00,-1.2389735,4.769981,8.629405
1421716067921.00,-1.2243041,4.6656475,8.616233
1421716067966.00,-1.2542418,4.7008247,8.834329
1421716067967.00,-1.3177098,4.631519,9.06006
1421716068012.00,-1.3022919,4.632866,9.153316
1421716068013.00,-1.3361216,4.8874865,9.041049
1421716068036.00,-1.2850777,5.0008006,8.763077
1421716068038.00,-1.2826827,4.7816563,8.645272
1421716068058.00,-1.0196795,4.6647496,8.78104
1421716068084.00,-1.0666819,4.45788,8.874146
1421716068098.00,-0.78781176,4.370761,8.789272
1421716068118.00,-0.80996567,4.2556505,8.738379
1421716068138.00,-0.83571213,4.1781116,8.800499
1421716068158.00,-0.6652167,3.9222937,9.241781
1421716068178.00,-0.46268785,3.8404138,9.290879
1421716068197.00,-0.48334488,3.977379,9.111852
1421716068218.00,-0.50894165,4.1511674,8.946146
1421716068238.00,-0.73572004,4.2102947,9.106314
1421716068258.00,-0.7807764,4.3107357,9.306597
1421716068278.00,-0.9671388,4.42899,9.345067
1421716068298.00,-1.027613,4.498296,9.00213
1421716068318.00,-1.0150392,4.430786,8.800649
1421716068337.00,-1.3039384,4.439468,8.934172
1421716068358.00,-1.0958711,4.5161085,8.851244
1421716068378.00,-0.943488,4.483177,8.962762
1421716068398.00,-1.0798545,4.454736,8.629854
1421716068417.00,-1.0011182,4.504882,8.7038
1421716068438.00,-1.0837463,4.39516,8.8757925
1421716068458.00,-1.0172845,4.244274,9.10796
1421716068477.00,-1.0862911,4.3722577,8.89136
1421716068497.00,-1.0216255,4.678671,8.101453
1421716068519.00,-1.5643969,5.306615,8.267308
1421716068546.00,-1.6889378,4.6867537,9.300759
1421716068562.00,-1.341211,4.0752754,9.629925
1421716068579.00,-1.1141331,4.1962237,9.623787
1421716068619.00,-1.3091775,4.643344,9.292975
1421716068620.00,-1.2611275,4.452491,9.12218
1421716068653.00,-1.0177336,4.350104,9.019943
1421716068658.00,-1.017584,4.301455,8.892708
1421716068688.00,-0.9880952,4.460574,8.809331
1421716068698.00,-1.0163864,4.6253815,8.5276165
1421716068718.00,-0.9755214,4.55877,8.574919
1421716068738.00,-1.1184741,4.320166,9.024433
1421716068758.00,-1.0240206,4.1522155,9.244027
1421716068779.00,-1.1781999,4.442013,9.196875
1421716068799.00,-1.2726535,4.647685,8.816067
1421716068837.00,-1.3464501,4.6759763,8.736282
1421716068838.00,-1.1798465,4.5180545,8.871751
1421716068866.00,-1.2510983,4.710554,9.00662
1421716068878.00,-1.2786411,4.6219387,8.884475
1421716068901.00,-1.085842,4.7003756,8.772358
1421716068919.00,-1.3816268,4.644841,8.787327
1421716068938.00,-1.2081376,4.5931983,8.972791
1421716068958.00,-1.1918216,4.3757005,9.163045
1421716068982.00,-1.1364368,4.52015,8.923393
1421716068999.00,-1.0662328,4.5438013,8.72311
1421716069019.00,-1.0306069,4.4947033,8.816666
1421716069038.00,-1.1678714,4.288582,9.066496
1421716069058.00,-1.1313473,4.458778,9.033864
1421716069078.00,-1.1823912,4.456832,9.010063
1421716069098.00,-1.2858261,4.609664,8.999585
1421716069120.00,-1.1888279,4.6253815,8.946146
1421716069165.00,-1.370999,4.685257,9.155112
1421716069166.00,-1.3877641,4.631369,8.85783
1421716069188.00,-1.3582754,4.9778986,8.052654
1421716069198.00,-1.597478,4.9042516,9.007968
1421716069226.00,-1.1395802,4.416416,9.028027
1421716069276.00,-1.3985417,4.467759,8.811127
1421716069277.00,-1.3413606,4.8401847,8.803642
1421716069278.00,-1.2533437,4.5982876,8.859327
1421716069308.00,-1.1364368,4.4358754,9.021589
1421716069329.00,-1.060844,4.706363,8.943901
1421716069365.00,-1.1569442,4.4397674,8.738379
1421716069365.00,-1.2513977,4.6051736,8.778345
1421716069394.00,-1.1954141,4.6571155,8.985365
1421716069409.00,-1.113684,4.472849,9.15601
1421716069418.00,-1.1787987,4.5792775,8.990604
1421716069438.00,-1.2506492,4.606371,8.746013
1421716069460.00,-1.0895842,4.8144383,8.7720585
1421716069478.00,-1.2952565,4.492458,8.915311
1421716069498.00,-1.1596385,4.398154,9.181756
1421716069519.00,-1.2919633,4.452192,9.100775
1421716069538.00,-1.0826985,4.5349693,8.948841
1421716069558.00,-1.1566447,4.4927573,8.773705
1421716069581.00,-1.1232642,4.5173063,8.755143
1421716069598.00,-1.2364289,4.5283833,8.983418
1421716069619.00,-1.2177178,4.414919,8.897347
1421716069638.00,-1.006956,4.538113,8.945099
1421716069658.00,-0.959355,4.4191103,8.803194
1421716069679.00,-0.9849518,4.503984,8.936417
1421716069698.00,-1.1355386,4.410279,8.912466
1421716069719.00,-1.1958632,4.573889,8.948841
1421716069738.00,-1.1446697,4.4782376,8.937465
1421716069758.00,-1.1849359,4.575984,8.810529
1421716069778.00,-1.1277548,4.623136,8.765023
1421716069800.00,-1.2084371,4.507726,8.891809
1421716069818.00,-1.3798306,4.4045906,8.888367
1421716069854.00,-1.2479548,4.52015,8.990455
1421716069867.00,-1.2365785,4.547244,8.8106785
1421716069878.00,-1.1238629,4.5638595,8.710686
1421716069900.00,-1.0967692,4.623735,8.887768
1421716069918.00,-1.2961546,4.4706035,8.8484
1421716069938.00,-1.1838881,4.57793,8.934022
1421716069958.00,-1.2933105,4.4403663,8.946595
1421716069978.00,-1.2731025,4.5399094,8.959619
1421716069998.00,-1.2193643,4.6952863,8.8332815
1421716070026.00,-1.2983999,4.5834684,8.914862
1421716070040.00,-1.1825409,4.5140133,9.05497
1421716070058.00,-1.3018428,4.623286,8.865764
1421716070078.00,-1.1868819,4.49635,8.845256
1421716070098.00,-1.1277548,4.6762757,8.770711
1421716070118.00,-1.0407857,4.709806,8.632848
1421716070138.00,-1.1677217,4.6473856,8.804091
1421716070158.00,-0.99872315,4.6084666,8.975784
1421716070178.00,-1.206042,4.6129575,8.9445
1421716070198.00,-1.0880873,4.449198,8.906179
1421716070227.00,-0.9970766,4.3340874,8.947494
1421716070239.00,-1.2466077,4.2674756,8.930729
1421716070258.00,-1.0943742,4.419709,8.955876
1421716070278.00,-1.1439213,4.5547285,8.813373
1421716070298.00,-1.2222084,4.749174,8.631949
1421716070318.00,-1.1919713,4.5297303,8.807983
1421716070338.00,-1.2126284,4.4589276,9.003178
1421716070358.00,-1.0880873,4.398453,8.965905
1421716070378.00,-1.2668157,4.6461883,8.946895
1421716070398.00,-1.1201206,4.744234,8.750054
1421716070420.00,-1.1659255,4.7151947,8.74257
1421716070440.00,-1.0940748,4.537065,8.930729
1421716070458.00,-1.1262579,4.5858636,9.062005
1421716070478.00,-1.1246114,4.65023,8.906928
1421716070498.00,-1.2813355,4.698729,8.817115
1421716070519.00,-1.1603869,4.634662,8.626561
1421716070539.00,-1.1684701,4.3806405,8.8509445
1421716070558.00,-1.0071057,4.493057,8.837322
1421716070579.00,-1.119522,4.450246,8.777148
1421716070598.00,-1.0777588,4.586313,8.8636675
1421716070619.00,-1.115181,4.5810738,8.911569
1421716070638.00,-0.9925859,4.622687,8.950936
1421716070660.00,-1.0538086,4.486171,8.980125
1421716070678.00,-1.1979588,4.6801677,8.737181
1421716070698.00,-1.0829979,4.615951,8.587791
1421716070719.00,-1.2169693,4.560267,8.768167
1421716070738.00,-1.1159294,4.6128078,9.019045
1421716070759.00,-1.0996133,4.641099,8.938064
1421716070778.00,-1.0804532,4.4518924,8.9204
1421716070803.00,-1.1452684,4.57329,8.898246
1421716070838.00,-0.99842376,4.692442,8.747659
1421716070839.00,-0.88001996,4.5676017,8.762777
1421716070868.00,-1.0617421,4.540358,8.892109
1421716070891.00,-1.1563454,4.4897633,8.795859
1421716070946.00,-0.9620494,4.5902047,8.847202
1421716070947.00,-1.1831397,4.608766,8.821755
1421716070947.00,-1.1322455,4.557722,8.808283
1421716071027.00,-1.0258168,4.609365,8.906479
1421716071028.00,-1.1720626,4.5041337,8.905431
1421716071028.00,-1.196911,4.637955,8.806487
1421716071030.00,-1.1731105,4.6390033,8.894204
1421716071043.00,-1.2250525,4.6586123,8.87205
1421716071073.00,-1.0807526,4.5833187,8.925639
1421716071142.00,-1.0078541,4.6397514,8.805589
1421716071143.00,-1.1042536,4.5981383,8.701855
1421716071144.00,-1.1533515,4.631369,8.865165
1421716071166.00,-1.0800041,4.5497885,8.783135
1421716071167.00,-1.0066566,4.4713516,8.740174
1421716071194.00,-1.1300001,4.486171,8.687783
1421716071256.00,-1.109343,4.5834684,8.736881
1421716071257.00,-0.92328,4.5864625,8.712333
1421716071258.00,-0.9595047,4.47704,8.850645
1421716071259.00,-1.0832973,4.4950027,8.777298
1421716071290.00,-1.06758,4.5393105,8.894953
1421716071348.00,-1.1445199,4.434079,8.948542
1421716071348.00,-1.1186239,4.6440926,9.050928
1421716071349.00,-0.9837543,4.5708947,8.66069
1421716071419.00,-1.1960129,4.7108536,8.869206
1421716071420.00,-1.1335927,4.454736,9.140741
1421716071421.00,-1.1419753,4.5782294,8.869506
1421716071421.00,-0.9389973,4.3782454,8.859178
1421716071442.00,-0.29144394,3.66917,8.866662
1421716071543.00,-0.5176236,4.30385,8.054601
1421716071548.00,-0.6646179,4.3224115,8.048163
1421716071548.00,-0.80772036,4.403543,9.147179
1421716071549.00,-0.33530274,3.9475908,8.964409
1421716071549.00,-0.017064514,3.7452118,8.634195
1421716071560.00,-0.29249176,4.0209384,8.58375
1421716071626.00,-0.3598517,4.02498,9.139395
1421716071627.00,-0.36673737,3.9357655,9.284742
1421716071628.00,-0.5980064,3.8814285,9.760154
1421716071658.00,-0.4924759,4.051026,10.13707
1421716071662.00,-0.5080435,4.3156757,9.476494
1421716071723.00,-0.55384827,4.211492,8.895701
1421716071724.00,-0.7807764,4.410279,8.776699
1421716071724.00,-0.5189708,3.8261933,9.393716
1421716071780.00,-1.1304492,3.027155,9.278156
1421716071781.00,-0.060324553,2.848277,8.565338
1421716071781.00,0.12978011,3.4004786,9.019045
1421716071812.00,0.48559022,3.0895753,9.070538
1421716071859.00,-4.49E-04,3.3200958,8.962762
1421716071860.00,-0.40520737,3.5167868,9.0269785
1421716071861.00,-0.1484912,3.35168,9.265882
1421716071906.00,-0.27303222,3.6685712,9.627529
1421716071907.00,-0.42317,3.6895275,9.628577
1421716071952.00,-0.337099,3.4006283,9.524544
1421716071953.00,-0.42227188,3.4129028,9.592952
1421716072007.00,-0.7222481,3.8887632,9.735754
1421716072008.00,-0.78092605,4.010161,9.78605
1421716072008.00,-0.95471466,4.2454715,9.472602
1421716072053.00,-1.04348,4.295617,9.493258
1421716072054.00,-0.8545729,4.3301954,9.454639
1421716072112.00,-0.4950206,4.047583,9.301059
1421716072113.00,-0.48783553,4.215983,8.0789995
1421716072113.00,-0.16615447,3.8728962,6.3676085
1421716072166.00,0.55399793,2.8650422,7.0192037
1421716072166.00,0.24668701,2.1594095,12.179572
1421716072167.00,0.23516098,3.118615,10.293644
1421716072242.00,-0.17663269,3.2482452,7.3172336
1421716072242.00,0.7960446,3.1030471,6.882388
1421716072243.00,0.8041278,4.2209225,10.546618
1421716072247.00,1.1620336,2.6120682,10.193203
1421716072277.00,0.7524852,2.6723928,9.918973
1421716072280.00,0.75742495,1.4458433,8.672964
1421716072354.00,0.56208116,0.38559815,7.502548
1421716072355.00,-0.086220704,1.3169614,8.038883
1421716072356.00,-0.05478607,1.4166541,8.108039
1421716072379.00,0.20776795,1.739832,9.78081
1421716072380.00,0.09295669,-0.1592688,10.717263
1421716072398.00,-0.13771363,2.2167404,9.170529
1421716072418.00,0.9083111,4.1833506,11.280692
1421716072439.00,2.3278093,1.9468515,12.482991
1421716072459.00,0.104183346,1.755699,7.9863424
1421716072483.00,-1.6856446,2.967579,3.921545
1421716072499.00,-7.604636,9.767938,6.1704683
1421716072519.00,0.56657183,3.5347495,0.8710387
1421716072538.00,3.7164717,-0.24040009,14.693146
1421716072559.00,3.5260675,0.81295943,4.506828
1421716072578.00,5.09241,1.9534378,7.2619987
1421716072651.00,4.788243,3.0198202,6.0344014
1421716072651.00,4.38573,2.6426046,5.5592895
1421716072652.00,3.3994308,1.0207274,8.01658
1421716072658.00,1.7952168,0.18785934,9.873019
1421716072682.00,1.9410137,0.57136184,7.916737
1421716072699.00,3.2883618,1.4177018,7.6655593
1421716072718.00,3.9854622,1.2723541,7.3941736
1421716072743.00,3.8257444,0.22079086,7.655231
1421716072773.00,4.608167,0.30686188,7.4178247
1421716072785.00,5.621859,0.37916154,6.8686166
1421716072798.00,6.065836,-1.017584,8.452473
1421716072818.00,5.49642,-1.4732364,9.375604
1421716072838.00,7.138655,-0.24713607,7.527696
1421716072858.00,9.577234,-0.48843428,6.6041164
1421716072880.00,9.072334,-1.4166541,7.5618253
1421716072931.00,7.2750216,-2.1281245,8.883277
1421716072933.00,8.130043,-2.1128564,8.16552
1421716073211.00,9.965676,-1.3361216,6.9689083
1421716073212.00,11.096275,-1.7878821,6.906937
1421716073219.00,10.8198,-2.2528152,6.6147447
1421716073243.00,11.273506,-1.9142194,5.6660175
1421716073244.00,12.413686,-1.4501843,4.5623627
1421716073247.00,11.970307,-1.1590397,4.292923
1421716073252.00,11.013947,-1.4370117,4.406836
1421716073253.00,10.109378,-1.4105169,3.9755828
1421716073255.00,10.456206,-1.7774038,3.1910641
1421716073266.00,10.678643,-2.133214,2.6909542
1421716073267.00,10.916799,-1.9200572,2.3071523
1421716073274.00,10.092163,-2.0056791,2.5715024
1421716073288.00,9.231004,-2.8066635,4.218827
1421716073292.00,8.906479,-2.6710455,4.099076
1421716073304.00,8.092322,-2.6993368,3.4206867
1421716073305.00,8.257578,-3.268154,3.6646793
1421716073314.00,9.346115,-3.1946566,4.5964913
1421716073315.00,10.627151,-3.0214667,3.3883538
1421716073319.00,10.918744,-2.6628127,3.016078
1421716073331.00,10.260862,-2.3122416,3.2826736
1421716073352.00,11.285781,-1.6584014,4.124673
1421716073365.00,9.530681,-0.008083191,2.061064
1421716073387.00,6.4345193,-0.33410522,0.55040544
1421716073402.00,4.387975,-0.4867877,2.068848
1421716073506.00,5.0033455,-0.5834866,1.3769865
1421716073525.00,6.749315,-0.13427079,-0.6608757
1421716073531.00,7.2530174,-0.19279908,-1.4009367
1421716073533.00,7.9179344,-1.8856288,2.3893313
1421716073534.00,7.7794724,-2.0877085,2.8728259
1421716073535.00,9.7426405,-3.6796482,-0.71057236
1421716073554.00,12.196937,-2.880011,1.2569362
1421716073564.00,9.177116,-2.8268714,-0.6683601
1421716073626.00,5.836064,-2.9770093,-1.7553996
1421716073627.00,5.6395226,-3.8425095,-1.4813195
1421716073628.00,6.4604154,-7.4440203,2.330354
1421716073641.00,5.175338,-6.4108686,-0.2695894
1421716073659.00,2.579885,-5.7649617,-2.5285418
1421716073689.00,6.279442,-9.803563,0.26285338
1421716073699.00,10.178384,-11.35359,-0.44756928
1421716073719.00,9.891131,-12.638219,-0.9142987
1421716073739.00,8.583001,-11.664344,-1.1820918
1421716073759.00,7.320078,-5.9372535,-6.4979873
1421716073779.00,4.944967,-4.235143,-0.420775
1421716073799.00,7.5202117,-4.915478,1.7136365
1421716073819.00,5.692812,-6.1644807,-0.7020401
1421716073839.00,3.8699026,-8.233029,-0.16825013
1421716073858.00,5.4317546,-9.072933,1.1302996
1421716073879.00,3.7982016,-9.859696,0.46104127
1421716073902.00,2.6143136,-9.619596,-0.044607237
1421716073953.00,1.6054115,-10.076146,0.14175522
1421716073954.00,2.051933,-5.733677,-0.3185376
1421716073962.00,1.7336948,-4.455934,0.4429289
1421716073982.00,3.3317716,-1.5561639,0.57675064
1421716074004.00,6.171816,-6.353388,0.62929136
1421716074019.00,4.0983276,-9.195378,1.4212945
1421716074039.00,3.4293685,-11.090736,1.6908838
1421716074059.00,2.5692573,-11.094329,-0.036973115
1421716074079.00,2.7190957,-10.217004,-0.41119492
1421716074099.00,2.2083578,-9.431737,-0.63617706
1421716074120.00,1.920656,-5.9707837,-0.48139894
1421716074139.00,0.6638695,-3.457061,-9.4491005
1421716074159.00,-2.0040326,-6.538553,10.674453
1421716074180.00,-0.14684464,-11.963422,-1.265169
1421716074200.00,5.624254,-14.979051,-1.8311421
1421716074270.00,2.8581564,-13.760735,-0.16929795
1421716074271.00,0.04565506,-9.686507,-1.2772938
1421716074271.00,0.2415976,-10.812166,-1.7278569
1421716074280.00,1.0829979,-9.516161,-1.3090279
1421716074299.00,1.771566,-10.02675,-1.8820363
1421716074321.00,2.1180954,-10.844648,-2.3309526
1421716074348.00,0.09250763,-5.841752,2.7882519
1421716074368.00,-1.645079,-3.2043865,2.4999514
1421716074384.00,0.3900888,-5.096901,-2.5304878
1421716074399.00,1.060844,-4.330345,0.5559439
1421716074420.00,0.91669375,-3.5877392,1.2463083
1421716074440.00,0.9488768,-2.5932074,1.3445041
1421716074459.00,0.53109556,-1.8265017,1.1196716
1421716074479.00,1.3263917,-5.643265,0.15193406
1421716074499.00,11.757001,-17.685274,8.892259
1421716074519.00,4.329896,-10.110275,-4.242478
1421716074539.00,1.4702426,1.8513501,-13.516293
1421716074559.00,0.032183073,-8.733139,-2.8029213
1421716074615.00,-2.3830445,-12.162957,5.511838
1421716074616.00,-5.335804,-9.537866,4.741091
1421716074623.00,-3.5449283,-10.291698,2.9368927
1421716074640.00,-2.4504044,-9.729318,1.0463241
1421716074659.00,-1.7812958,-9.136999,-1.2398716
1421716074684.00,0.07589218,-9.63202,-2.258803
1421716074699.00,0.64919996,-9.474697,-1.6545094
1421716074723.00,0.27707383,-9.796228,0.15956818
1421716074739.00,0.21989273,-9.821077,1.4301261
1421716074759.00,0.47136977,-9.450598,-0.51462984
1421716074779.00,4.4840755,-8.651259,1.2073892
1421716074799.00,0.45894563,-10.136321,6.187533
1421716074819.00,-1.8848804,-10.368638,2.7460396
1421716074839.00,-2.222578,-10.393337,-1.2874727
1421716074861.00,-1.7657281,-9.646689,-3.6670742
1421716074961.00,-1.368604,-8.855136,-0.8813672
1421716074972.00,-0.25147706,-9.528885,1.1032059
1421716074974.00,0.76386154,-9.225316,1.3052857
1421716074975.00,1.1029065,-9.58382,0.395777
1421716074976.00,0.5625302,-9.543255,0.8804691
1421716074991.00,1.2105327,-9.065747,1.3760884
1421716075018.00,1.9636166,-9.855057,-1.1681708
1421716075019.00,1.3356725,-11.240425,-2.098037
1421716075039.00,0.5243596,-10.733879,-1.909579
1421716075060.00,-0.45984375,-9.523795,-2.5471032
1421716075080.00,-1.0370435,-8.953182,-0.33470398
1421716075099.00,-1.2762461,-8.474776,2.4333398
1421716075119.00,-1.2942086,-9.325607,3.9645057
1421716075139.00,-1.0312057,-9.3067465,2.224075
1421716075159.00,-0.07499405,-9.800719,0.23845413
1421716075233.00,1.2856765,-10.366243,-0.4327501
1421716075234.00,1.502276,-9.940379,-1.2494518
1421716075235.00,0.72793627,-9.643995,-0.4538562
1421716075239.00,-0.37886214,-9.612261,0.61522067
1421716075259.00,-0.7135661,-9.534872,1.1892769
1421716075284.00,-0.76371187,-9.664054,0.701591
1421716075299.00,-0.7212002,-9.850865,0.2746788
1421716075324.00,-0.68811905,-9.749077,0.29279113
1421716075339.00,-0.6572832,-9.586215,0.5661228
1421716075359.00,-0.51971924,-9.698631,0.8912466
1421716075379.00,-0.24908203,-9.684411,1.0385404
1421716075399.00,-0.15582596,-9.649533,0.9885443
1421716075419.00,0.029488677,-9.574539,0.83945435
1421716075439.00,0.04805008,-9.421258,1.0708731
1421716075459.00,0.107925564,-9.254805,1.2894187
1421716075479.00,0.3382965,-9.3244095,1.2719051
1421716075499.00,0.53588563,-9.570648,1.1820918
1421716075572.00,0.8571176,-9.64639,1.022823
1421716075573.00,0.9568103,-9.842632,1.1416758
1421716075574.00,0.90756273,-9.765244,1.2204121
1421716075582.00,0.929567,-10.046957,1.1593392
1421716075599.00,0.93660235,-10.038874,1.1343411
1421716075626.00,0.6688092,-9.7724285,0.7450008
1421716075648.00,0.5448669,-9.475895,0.6417155
1421716075659.00,0.253423,-9.241931,0.9054671
1421716075679.00,0.3251239,-9.310339,1.0663824
1421716075699.00,0.44712022,-9.396709,1.0990146
1421716075725.00,0.7722441,-9.629925,1.6337028
1421716075740.00,0.7604187,-9.527388,2.208657
1421716075759.00,0.90846086,-9.485924,1.9872675
1421716075780.00,1.0419831,-9.565708,1.0883867
1421716075800.00,1.2037967,-9.707164,0.34218842
1421716075820.00,1.3422588,-9.770632,0.221689
1421716075840.00,1.3015435,-9.734557,0.62824357
1421716075919.00,0.72703815,-9.624386,1.5560143
1421716075925.00,0.42317,-9.577085,1.5277231
1421716075929.00,0.15911911,-9.796678,0.5528004
1421716075930.00,0.30356872,-9.81958,-0.6724017
1421716075941.00,0.7165599,-9.601334,-1.1386821
1421716075959.00,1.3106744,-9.645193,-0.34143996
1421716075981.00,1.6223264,-9.909992,0.73078036
1421716076000.00,1.7432748,-10.363549,1.1276051
1421716076028.00,1.3695021,-10.295141,0.420775
1421716076041.00,1.065634,-10.150542,0.09669891
1421716076085.00,0.7608678,-9.709858,-0.7023395
1421716076086.00,0.25447083,-9.308693,-1.1904744
1421716076099.00,0.18860778,-9.4242525,-1.165177
1421716076119.00,-0.02694397,-10.20907,-0.5578899
1421716076139.00,-0.6692583,-11.307635,-0.32272887
1421716076160.00,-1.4995816,-12.819342,-1.2519965
1421716076232.00,-1.73115,-12.896432,-2.5906627
1421716076233.00,-0.62450135,-12.003688,-3.565286
1421716076235.00,0.26988876,-11.05541,-4.0668926
1421716076242.00,1.1849359,-11.285481,-3.3751812
1421716076262.00,1.2103829,-12.160562,-2.9582982
1421716076280.00,1.7639319,-13.8209095,0.19728974
1421716076299.00,1.1900253,-12.269086,-2.6887088
1421716076323.00,0.33410522,-10.902429,-2.7129583
1421716076360.00,-0.14639556,-10.554402,-2.5161178
1421716076361.00,-0.26255402,-9.983938,-0.8071216
1421716076383.00,-0.17348923,-9.405841,-0.77299255
1421716076400.00,0.52196455,-9.073531,-2.3680756
1421716076419.00,0.8479866,-8.520881,-3.7303927
1421716076450.00,0.04700226,-7.880662,-3.8770876
1421716076460.00,-0.8634045,-7.5941577,-3.939957
1421716076481.00,-1.5461348,-7.6447525,-3.495531
1421716076545.00,-1.6142431,-7.086414,-3.4533188
1421716076546.00,-1.8428178,-5.9501266,-4.304449
1421716076548.00,-1.920656,-5.4551063,-4.8327003
1421716076560.00,-1.8405725,-5.140161,-5.1126184
1421716076579.00,-1.8486557,-5.146897,-4.6720843
1421716076599.00,-1.6527132,-4.884642,-4.1641903
1421716076619.00,-1.4006374,-4.2556505,-4.25101
1421716076639.00,-2.1228855,-3.8251455,-4.979994
1421716076659.00,-2.3432271,-4.189488,-5.7083793
1421716076679.00,-1.4691948,-4.787644,-5.772596
1421716076703.00,-0.35625917,-4.755012,-6.1757073
1421716076719.00,0.2749782,-4.5075765,-6.854546
1421716076748.00,0.16765137,-4.9572415,-7.1606593
1421716076759.00,-0.53139496,-5.481451,-6.690337
1421716076794.00,-1.3015435,-6.1161313,-7.9442797
1421716076800.00,-0.6138734,-10.012528,-10.587633
1421716076820.00,-0.5340893,-10.545271,-9.370963
1421716076886.00,-0.74485105,-6.4661036,-6.68899
1421716076887.00,-1.7579443,-4.7177396,-5.076843
1421716076888.00,-2.2174888,-5.718708,-5.2602115
1421716076899.00,-0.53932846,-8.511151,-6.652017
1421716076919.00,0.008232879,-10.651251,-6.260132
1421716076939.00,-1.5640974,-10.829081,-5.565277
1421716076959.00,-2.0818708,-10.038126,-5.848338
1421716076979.00,-1.5623012,-8.948841,-5.3741245
1421716076999.00,-0.9277707,-8.832982,-4.411626
1421716077019.00,-0.75398207,-9.330098,-3.561993
1421716077039.00,-0.50130755,-9.818831,-3.5519636
1421716077059.00,-0.07214996,-9.965676,-3.24121
1421716077079.00,0.19609222,-9.709409,-2.4743545
1421716077104.00,0.45879593,-9.147478,-2.1909938
1421716077119.00,0.866548,-9.407038,-1.3668077
1421716077182.00,1.0738668,-9.274863,-1.0138417
1421716077183.00,1.5528708,-9.432186,-0.5272037
1421716077185.00,1.4241385,-9.332193,-0.23306534
1421716077199.00,1.1799961,-9.066646,-0.07214996
1421716077219.00,1.1258088,-8.6578455,-0.016914826
1421716077240.00,1.2448114,-8.665629,-0.5149292
1421716077259.00,1.439257,-8.883726,-0.94169176
1421716077279.00,1.7991087,-9.7862,-0.5547464
1421716077299.00,2.1588106,-10.077194,-0.6604266
1421716077320.00,2.4728577,-9.573642,-0.56911653
1421716077339.00,2.2055137,-9.246122,-0.41942778
1421716077360.00,1.6808547,-9.514365,-1.0812017
1421716077380.00,1.2823833,-9.78081,-1.0563533
1421716077399.00,0.97342575,-9.621692,-1.0111473
1421716077419.00,1.3227992,-9.497899,-0.09325607
1421716077439.00,1.1280541,-9.984088,-0.50490004
1421716077462.00,0.88451064,-9.811048,0.30701157
1421716077535.00,0.59635985,-9.262289,0.021704864
1421716077536.00,0.8479866,-8.721165,-0.30476624
1421716077537.00,0.58992326,-8.875643,-0.24563919
1421716077544.00,0.027542725,-8.928633,0.73182815
1421716077559.00,0.30970597,-8.787477,0.062420197
1421716077580.00,1.0336006,-9.099577,-0.74739575
1421716077600.00,1.325344,-9.2813,-1.4361136
1421716077619.00,1.2762461,-9.18924,-0.9023236
1421716077639.00,1.2356803,-8.977731,-0.62045974
1421716077659.00,1.2612772,-9.404793,-0.40655458
1421716077679.00,1.4835649,-10.077943,0.2017804
1421716077699.00,1.7643809,-10.624456,0.7503896
1421716077723.00,0.9190887,-10.323582,1.5190412
1421716077741.00,-0.15148498,-10.468032,2.713108
1421716077762.00,-0.25387207,-11.178754,2.259701
1421716077779.00,0.21300705,-12.821438,1.8839822
1421716077852.00,0.2812651,-13.847105,1.8586849
1421716077853.00,0.028440857,-14.235996,1.2428654
1421716077854.00,-0.31015503,-14.516064,0.5761519
1421716077861.00,-0.58618104,-13.674664,-0.46358597
1421716077881.00,-0.5640271,-12.927866,-1.8904189
1421716077899.00,-0.2890489,-11.927347,-2.7770252
1421716077919.00,0.24504043,-12.240196,-2.955005
1421716077940.00,0.98929274,-12.682227,-3.8205051
1421716077960.00,1.5364051,-12.199481,-5.6808367
1421716077979.00,1.4338683,-12.31549,-7.6221495
1421716077999.00,0.76925033,-13.08953,-3.9439983
1421716078019.00,-0.6408174,-11.981684,8.594976
1421716078039.00,-1.8516495,-11.172766,5.3521204
1421716078059.00,-2.459236,-10.467583,1.9648142
1421716078080.00,-0.5825885,-10.414892,0.19669098
1421716078099.00,1.7356408,-11.120974,-2.7803183
1421716078207.00,1.7347426,-9.572294,-3.0288017
1421716078208.00,0.19474502,-8.568032,-2.2867947
1421716078209.00,-0.82179105,-7.4866815,-1.2787907
1421716078210.00,-1.1716136,-6.7274604,-1.2332854
1421716078211.00,-1.1000624,-6.202951,-0.9485774
1421716078220.00,-0.7688013,-5.7607703,-1.7193246
1421716078240.00,-0.91639435,-5.267097,-2.45729
1421716078259.00,-1.2308904,-5.3082614,-3.16427
1421716078279.00,-1.5323634,-5.1838703,-3.6416273
1421716078305.00,-1.5284715,-4.3031015,-3.721112
1421716078319.00,-1.3994398,-3.5009198,-3.9149587
1421716078340.00,-1.4708414,-3.30857,-4.162993
1421716078360.00,-1.7221687,-3.1777418,-4.3737545
1421716078379.00,-1.3013937,-3.200195,-4.753964
1421716078399.00,-0.14115646,-3.1412177,-5.559439
1421716078419.00,0.51118696,-3.609893,-6.672824
1421716078439.00,0.3595523,-4.0905437,-8.094867
1421716078523.00,0.3028203,-6.314918,-9.925261
1421716078524.00,-0.8728349,-6.9446583,-10.314601
1421716078525.00,-2.5917106,-6.3845234,-7.486382
1421716078526.00,-2.0481908,-7.944729,-6.877149
1421716078539.00,-2.3667283,-7.613767,-4.9029045
1421716078559.00,-2.0466938,-7.9607453,-6.254294
1421716078579.00,-0.69096315,-8.178393,-5.9728794
1421716078599.00,-1.7956659,-8.722212,-5.6932607
1421716078622.00,-2.594405,-9.930499,-5.6350317
1421716078643.00,-2.0348685,-10.310709,-5.273833
1421716078659.00,-1.3843213,-10.329869,-4.092789
1421716078679.00,-0.32721955,-10.251582,-3.232528
1421716078701.00,0.10912308,-9.950558,-2.7996283
1421716078723.00,0.021255799,-9.78605,-2.36104
1421716078740.00,-0.032332763,-9.787098,-2.0161574
1421716078763.00,0.3686833,-10.078242,-1.5998731
1421716078820.00,0.91010743,-10.230925,-0.88690567
1421716078821.00,0.87148774,-9.93978,-0.3634442
1421716078822.00,0.81011534,-9.680669,0.15462846
1421716078839.00,1.269061,-9.629326,0.8728349
1421716078859.00,1.8010547,-9.803264,0.50924104
1421716078880.00,1.891317,-9.646689,-0.54157376
1421716078899.00,1.4971865,-9.990824,-0.55923706
1421716078920.00,0.8475375,-9.426048,-0.91504717
1421716078940.00,0.9023236,-8.88208,-0.96953386
1421716078959.00,1.1091934,-8.587791,-0.93735075
1421716078980.00,1.3534855,-8.606353,-1.2913646
1421716078999.00,1.3230987,-8.755143,-1.0353969
1421716079020.00,1.8130298,-9.140741,-1.18299
1421716079040.00,1.5039226,-9.661958,-1.3097763
1421716079059.00,1.0641371,-10.114317,-1.4322217
1421716079079.00,0.19190094,-9.888587,-0.88989943
1421716079171.00,-0.21734802,-9.743089,-0.5902226
1421716079172.00,0.37107834,-9.708062,-0.6816824
1421716079173.00,-0.03158432,-9.202414,0.37886214
1421716079180.00,-0.17139359,-8.625813,0.85681826
1421716079181.00,0.4629872,-8.9900055,-0.009131012
1421716079199.00,1.5402969,-9.544901,-2.0853136
1421716079219.00,1.561403,-9.118288,-1.2765454
1421716079239.00,1.1187735,-8.743618,-0.357307
1421716079259.00,0.9237291,-9.013356,-0.5719606
1421716079279.00,0.82747924,-9.4012,-0.6430628
1421716079299.00,0.62045974,-9.99292,0.21270767
1421716079319.00,1.1808944,-10.62251,1.8720071
1421716079339.00,1.1832893,-11.350147,2.77463
1421716079367.00,0.3556604,-11.131153,2.615062
1421716079379.00,-0.71985304,-10.765463,2.1977298
1421716079400.00,-1.0448272,-12.01252,2.088008
1421716079419.00,-0.36973113,-13.586646,1.7938696
1421716079506.00,-0.013621674,-13.742023,1.047821
1421716079510.00,0.007185059,-13.801899,0.3143463
1421716079514.00,-0.010927277,-13.415253,-0.27378067
1421716079515.00,-0.55519545,-12.684322,-1.1557466
1421716079522.00,-0.60968214,-11.607312,-2.0258873
1421716079540.00,-0.21540207,-11.355087,-2.647694
1421716079561.00,0.1407074,-12.4563465,-3.5323544
1421716079581.00,1.0615925,-13.168566,-4.859794
1421716079599.00,1.9270926,-12.694652,-7.374864
1421716079627.00,1.4647042,-12.7024355,-5.898634
1421716079640.00,-0.003143463,-12.059372,6.9579806
1421716079659.00,-0.4899312,-13.2723,5.052593
1421716079681.00,-3.24121,-11.126363,-0.5388794
1421716079700.00,-3.1692095,-10.116713,1.1406281
1421716079719.00,-0.81310916,-10.561288,0.22872436
1421716079742.00,1.9755918,-11.638897,-2.8133996
1421716079813.00,1.6447797,-9.366023,-2.2210813
1421716079814.00,0.3195854,-7.8641963,-1.5063176
1421716079815.00,-0.9198372,-7.590715,-0.58333695
1421716079823.00,-1.2951068,-7.084318,-1.2121793
1421716079840.00,-0.8027806,-6.3929057,-1.0560539
1421716079859.00,-0.50669634,-5.456154,-1.9955003
1421716079879.00,-1.409469,-4.954547,-2.6051824
1421716079899.00,-1.9092796,-4.8768587,-3.1838791
1421716079919.00,-1.8360819,-4.7024713,-3.785029
1421716079943.00,-1.7295035,-3.956123,-3.773054
1421716079960.00,-1.344055,-3.5259178,-4.371809
1421716079979.00,-1.0979668,-3.2747402,-5.2952385
1421716080000.00,-0.91804093,-3.265609,-5.0117283
1421716080020.00,-0.2880011,-3.401826,-5.296436
1421716080039.00,0.31629226,-3.4956808,-6.0680814
1421716080059.00,0.32422578,-3.4141004,-6.430328
1421716080079.00,-0.17633331,-3.7964053,-6.7819467
1421716080164.00,-0.6420149,-5.4072056,-9.140592
1421716080166.00,-1.0090517,-8.109087,-10.326725
1421716080167.00,-1.5164964,-7.9348493,-9.263487
1421716080168.00,-1.2934602,-7.067104,-7.992779
1421716080180.00,-1.1210189,-7.1256323,-5.630092
1421716080200.00,-2.2052143,-6.053861,-5.3676877
1421716080219.00,-2.1457877,-7.228019,-6.500532
1421716080240.00,-1.248853,-8.326585,-5.8402553
1421716080260.00,-1.662892,-9.528286,-6.2396245
1421716080280.00,-2.328408,-10.159523,-6.052963
1421716080300.00,-2.188,-9.815538,-5.2682943
1421716080320.00,-1.6774118,-9.379196,-4.1785607
1421716080340.00,-1.5823594,-9.243428,-3.523822
1421716080360.00,-0.9559122,-9.539662,-3.4302666
1421716080382.00,-0.640518,-9.692345,-2.9825478
1421716080449.00,-0.6762936,-10.0400715,-2.5589287
1421716080450.00,-0.26794282,-9.825567,-2.0823197
1421716080451.00,0.41927812,-9.695488,-1.2180171
1421716080470.00,1.1172767,-9.644744,-0.7388635
1421716080484.00,1.1626323,-9.51661,-0.2203418
1421716080500.00,1.5355068,-9.620045,0.47855484
1421716080519.00,2.0868104,-9.677825,0.50100815
1421716080539.00,2.0489392,-9.927356,-0.02215393
1421716080560.00,1.6423846,-9.721833,-0.3873944
1421716080580.00,0.830473,-9.545799,-1.0337503
1421716080599.00,0.680934,-9.432485,-1.3103751
1421716080619.00,0.8026309,-9.331594,-1.3602214
1421716080639.00,1.2620256,-8.710386,-1.3717475
1421716080663.00,1.5600559,-8.78583,-0.7819739
1421716080679.00,1.8248552,-9.472602,-0.7683522
1421716080700.00,1.8634748,-9.264833,-0.850681
1421716080753.00,1.063688,-9.327404,-0.64665526
1421716080754.00,0.14579682,-9.528735,-1.0370435
1421716080759.00,-0.5894742,-9.6405525,-0.38005966
1421716080779.00,-0.7018904,-9.786649,-0.32078293
1421716080799.00,-0.83032334,-9.629176,-1.0943742
1421716080833.00,-0.33066237,-9.206006,-0.031284943
1421716080840.00,0.19294876,-8.750504,0.21689896
1421716080859.00,1.0240206,-9.105415,-0.19339782
1421716080879.00,1.2211605,-9.121283,-0.41059616
1421716080900.00,1.1750565,-8.863369,-0.48529083
1421716080920.00,1.1305989,-9.11784,-0.94902647
1421716080939.00,0.39907014,-9.895772,-1.0027647
1421716080960.00,-0.15507752,-10.477911,0.59635985
1421716080979.00,0.4950206,-11.256742,2.2520669
1421716081000.00,0.80996567,-11.543395,2.6964927
1421716081020.00,0.14025833,-11.027867,1.9670595
1421716081092.00,-0.6538403,-11.897409,2.2507195
1421716081094.00,-0.9364526,-13.957275,1.9312838
1421716081098.00,-0.823737,-14.679074,0.32542327
1421716081099.00,-0.6209088,-14.230308,-0.66282165
1421716081120.00,-0.6810837,-13.144615,-1.2686119
1421716081141.00,-0.70398605,-12.052337,-2.1257296
1421716081183.00,-0.5590874,-11.433973,-2.7258315
1421716081184.00,-0.85532135,-12.7433,-3.0011091
1421716081202.00,-0.21659958,-13.464351,-3.4112563
1421716081221.00,0.49621812,-12.889397,-5.452861
1421716081240.00,1.1252102,-12.846885,-6.314918
1421716081260.00,0.10642868,-12.707824,3.121908
1421716081279.00,-0.563578,-13.074112,5.1495914
1421716081300.00,-3.0376332,-11.295511,1.7476158
1421716081320.00,-3.8070333,-10.855426,1.8022522
1421716081340.00,-1.9835253,-10.3568125,-0.3276686
1421716081360.00,0.54067564,-11.6860485,-1.0124946
1421716081380.00,1.291215,-9.485325,-3.3235388
1421716081441.00,0.3477269,-8.281229,-1.8342856
1421716081442.00,-0.33530274,-7.6484947,-0.96549225
1421716081444.00,-0.8137079,-6.955137,-0.75023985
1421716081477.00,-1.3596226,-6.1691213,-0.9419911
1421716081480.00,-1.1207194,-6.108647,-1.7780026
1421716081514.00,-1.2560381,-5.7296352,-2.3400838
1421716081520.00,-1.7431252,-5.1298323,-2.7575655
1421716081540.00,-2.1656964,-4.1806564,-3.195405
1421716081561.00,-2.0392094,-3.0352383,-3.5298097
1421716081580.00,-2.4580386,-2.277963,-3.8119729
1421716081599.00,-2.527494,-2.3174808,-4.5595183
1421716081620.00,-1.3480966,-2.4879763,-4.5152106
1421716081641.00,0.32198045,-3.1498997,-5.603747
1421716081660.00,1.5367044,-3.7595818,-6.5560665
1421716081679.00,1.2802876,-4.046984,-6.6615973
1421716081746.00,0.13127701,-4.10656,-8.29066
1421716081751.00,-1.4961388,-5.4798045,-11.69533
1421716081752.00,-2.8196864,-8.436457,-9.625434
1421716081760.00,-2.0377126,-10.679691,-6.327941
1421716081779.00,-3.4678385,-8.436606,-3.2941997
1421716081799.00,-2.033671,-7.620503,-6.553522
1421716081820.00,-1.1708652,-7.975714,-5.786816
1421716081854.00,-2.7292745,-9.923314,-4.928501
1421716081863.00,-2.639012,-10.677596,-5.18881
1421716081886.00,-2.379901,-10.371781,-4.816983
1421716081899.00,-2.2797592,-9.512419,-3.8100271
1421716081920.00,-2.1377046,-8.919053,-2.711162
1421716081940.00,-1.683549,-8.6964655,-2.1842577
1421716081960.00,-1.3543836,-8.999435,-1.7522562
1421716081980.00,-0.7087761,-9.671688,-1.2509487
1421716081999.00,0.1646576,-10.57446,-0.56687117
1421716082019.00,0.8966354,-10.664124,-0.4044589
1421716082089.00,1.22146,-9.98783,0.007783813
1421716082090.00,1.4501843,-9.572594,0.8659493
1421716082091.00,1.9305354,-9.64175,0.29578492
1421716082100.00,2.2138963,-9.570947,0.065114595
1421716082123.00,1.3823754,-9.724827,-0.68422717
1421716082139.00,0.89992857,-9.339378,-1.1193722
1421716082160.00,0.91235274,-9.04045,-1.3439053
1421716082180.00,1.1910732,-8.889713,-0.9659413
1421716082200.00,0.99557966,-9.555679,-0.8038284
1421716082220.00,0.9116043,-9.64639,-1.7301022
1421716082240.00,0.68752027,-9.65642,-1.7160316
1421716082260.00,0.13965958,-10.091115,-1.4163547
1421716082280.00,-0.71730834,-9.364227,-0.2507286
1421716082300.00,-1.0174342,-9.219178,-0.1817221
1421716082476.00,-0.87268525,-9.570797,-0.9286688
1421716082478.00,-0.25701553,-9.080118,0.13591737
1421716082479.00,0.33395553,-8.783285,-0.24219635
1421716082480.00,1.0036628,-8.998238,-1.0292597
1421716082481.00,1.162782,-8.950637,-0.68692154
1421716082482.00,1.4687457,-8.895701,-1.2394226
1421716082483.00,0.92747134,-8.727601,-0.7294331
1421716082484.00,0.4472699,-9.775722,-0.43978545
1421716082485.00,0.81385756,-11.303743,1.7881814
1421716082500.00,0.80757064,-12.049942,2.1573138
1421716082533.00,-0.13142669,-12.177177,1.1997551
1421716082602.00,-1.2394226,-12.335399,2.026486
1421716082603.00,-2.1439915,-13.905483,2.0426524
1421716082604.00,-2.342329,-14.62354,0.8571176
1421716082605.00,-2.1496797,-13.738281,-0.41493714
1421716082625.00,-1.7106427,-12.906012,-1.5031742
1421716082644.00,-0.916544,-12.036171,-2.1219873
1421716082662.00,-0.4352948,-11.753259,-2.2046156
1421716082680.00,-0.55295014,-13.129048,-2.4665709
1421716082702.00,-0.40505767,-13.247152,-3.6206708
1421716082779.00,0.088166654,-12.695549,-6.214627
1421716082780.00,0.4403842,-12.36324,-6.407426
1421716082781.00,0.84199905,-12.418775,1.9540366
1421716082782.00,0.20836669,-12.962444,4.74618
1421716082800.00,-2.6180558,-10.62266,2.108216
1421716082820.00,-2.6182053,-9.996363,1.5834073
1421716082840.00,-0.39502853,-10.127939,0.2998265
1421716082860.00,2.3167324,-11.604768,-1.3977933
1421716082880.00,1.8682649,-9.010512,-3.132536
1421716082900.00,0.66536635,-8.092173,-1.7006135
1421716082919.00,-0.26929,-7.0889583,-0.5456154
1421716082940.00,-0.45325744,-6.9446583,-0.83556247
1421716082962.00,-0.728535,-6.7410817,-1.3407619
1421716082980.00,-0.644859,-6.4511347,-1.6136444
1421716083003.00,-1.0178833,-6.5523243,-2.4435186
1421716083075.00,-1.2686119,-6.096223,-3.3061748
1421716083077.00,-1.667233,-5.8459435,-3.8902602
1421716083078.00,-2.3563998,-5.397027,-4.2364902
1421716083080.00,-2.3317013,-4.7427373,-4.126918
1421716083100.00,-1.8631755,-4.513564,-4.26538
1421716083120.00,-1.2455598,-4.4617715,-4.6711864
1421716083140.00,-1.0597961,-4.030369,-5.403613
1421716083160.00,-1.3516891,-3.8029916,-6.0517654
1421716083180.00,-1.3413606,-3.8520896,-5.8978853
1421716083200.00,-0.8174501,-3.6618352,-6.2361817
1421716083220.00,-0.46164,-3.4217346,-6.568042
1421716083240.00,-0.47331575,-4.6220884,-7.456594
1421716083260.00,-0.7214996,-6.558911,-8.436307
1421716083280.00,-0.58273816,-7.012018,-8.851394
1421716083305.00,-0.19429596,-5.489834,-7.893535
1421716083320.00,-1.0710227,-4.599036,-7.066206
1421716083403.00,-1.812431,-5.6038966,-7.444469
1421716083404.00,-2.6125174,-6.5056214,-8.255183
1421716083405.00,-2.6110203,-6.2656703,-8.343799
1421716083406.00,-1.9613713,-5.9399476,-8.576116
1421716083423.00,-1.6054115,-6.4038334,-7.4347396
1421716083440.00,-1.9461031,-7.477251,-7.3991137
1421716083460.00,-2.4167244,-8.440349,-6.922654
1421716083479.00,-1.7280066,-8.787027,-6.7080007
1421716083500.00,-2.5764422,-9.335636,-5.967341
1421716083520.00,-3.0335915,-9.840088,-5.0856743
1421716083540.00,-2.9397368,-9.5175085,-4.6985793
1421716083560.00,-2.714156,-9.018446,-4.2070017
1421716083580.00,-2.363585,-8.80484,-3.6598892
1421716083600.00,-1.8697618,-8.437055,-3.1225066
1421716083620.00,-1.4793736,-8.351433,-2.6966424
1421716083640.00,-0.9273216,-8.54049,-2.3162832
1421716083663.00,-0.24893235,-8.584648,-1.9407142
1421716083742.00,0.46403503,-8.663235,-1.8624271
1421716083743.00,1.1045531,-8.856632,-1.4850618
1421716083745.00,1.0205777,-8.580307,-1.1566447
1421716083746.00,1.2656181,-8.822205,-1.1743081
1421716083760.00,1.2458593,-9.289233,-0.7274872
1421716083780.00,1.4795233,-10.054441,-0.041463777
1421716083800.00,1.2856765,-10.765912,-0.20746857
1421716083820.00,0.8517288,-10.168205,-0.12798385
1421716083844.00,0.07978409,-9.560768,-0.5093907
1421716083860.00,0.5933661,-9.118138,-0.43724075
1421716083883.00,1.3175601,-9.146879,0.18696122
1421716083900.00,1.7310004,-9.171278,0.941542
1421716083926.00,1.4741346,-9.11784,0.65773225
1421716083940.00,0.7427554,-9.428444,0.042361908
1421716084034.00,0.16405883,-9.621841,0.1552272
1421716084035.00,-0.9735754,-9.3735075,-0.45864624
1421716084036.00,-1.665287,-8.9409075,-1.1928694
1421716084036.00,-1.81288,-9.043743,-0.7271878
1421716084051.00,-2.2869444,-8.934172,-0.041912843
1421716084073.00,-1.9317329,-8.787477,-0.42691222
1421716084080.00,-0.9369017,-9.447155,-0.6780899
1421716084100.00,0.30416748,-9.7884445,-1.0940748
1421716084121.00,1.0553055,-10.013726,-0.26614654
1421716084142.00,1.1746074,-10.361603,0.73182815
1421716084161.00,0.8652008,-10.158924,0.74395293
1421716084180.00,0.27093658,-10.415791,-0.3050656
1421716084200.00,0.06915619,-10.562485,-0.8430469
1421716084220.00,0.8276289,-12.226575,-0.74739575
1421716084243.00,1.7646804,-15.441589,-1.1082953
1421716084260.00,2.0619621,-15.797997,-0.48020142
1421716084280.00,1.7339941,-14.012362,-1.1148816
1421716084300.00,0.7515871,-11.686498,-1.2424164
1421716084375.00,-0.15717316,-10.369536,0.051193543
1421716084376.00,0.12633727,-10.203681,1.7844392
1421716084377.00,0.6753955,-10.492431,3.5142422
1421716084390.00,1.2789404,-10.360854,4.235143
1421716084438.00,1.8272502,-9.855804,3.888913
1421716084439.00,1.2379258,-10.213711,2.8975246
1421716084440.00,0.8455916,-10.865156,0.77014846
1421716084460.00,0.09654923,-10.690319,-0.16615447
1421716084480.00,-0.4204756,-10.436896,2.7566674
1421716084500.00,-1.1599379,-9.739496,3.3548236
1421716084520.00,-0.3929329,-8.946595,2.2835014
1421716084540.00,0.13172607,-9.075028,1.401236
1421716084560.00,0.15163468,-9.12233,1.518143
1421716084580.00,0.24444169,-9.313931,2.5134232
1421716084600.00,-0.31150222,-8.794212,2.5505462
1421716084666.00,-1.1569442,-7.975864,1.7094452
1421716084667.00,-1.88503,-7.3515124,1.0653347
1421716084668.00,-2.6460476,-7.201225,0.18860778
1421716084680.00,-2.826722,-6.8148785,-0.84424436
1421716084700.00,-3.0370345,-6.884334,-1.3569282
1421716084720.00,-2.7425966,-7.2660403,-1.7381854
1421716084745.00,-2.0216959,-8.300539,-2.1857548
1421716084768.00,-1.0686278,-9.174122,-2.0589683
1421716084798.00,-0.3861969,-9.591155,-2.1758752
1421716084804.00,0.4076024,-9.89652,-2.6828709
1421716084824.00,1.8793418,-11.052417,-5.0600777
1421716084851.00,3.0383816,-12.426109,-7.4856334
1421716084860.00,1.8377284,-11.255095,-4.7725253
1421716084880.00,0.6331833,-9.6179495,-2.1650977
1421716084901.00,-0.24968079,-8.700657,-1.1822416
1421716084920.00,-1.0767109,-7.4634795,-0.9952803
1421716084940.00,-1.0933264,-6.6095057,-0.542921
1421716085030.00,-1.1114388,-8.782836,-0.28066635
1421716085031.00,-0.39353165,-15.793657,-1.4105169
1421716085032.00,1.3434563,-19.066002,-3.251239
1421716085033.00,-2.0918999,-12.781471,-3.2763867
1421716085045.00,-5.03014,-3.4262252,2.0222945
1421716085060.00,-4.572691,-1.387315,3.3844619
1421716085080.00,-3.6332445,-2.0859122,3.628305
1421716085100.00,-2.9677286,-5.5875807,3.2174094
1421716085120.00,-1.3933026,-12.055032,3.9333706
1421716085143.00,1.1843371,-17.660275,4.161047
1421716085173.00,3.3485367,-13.966407,-0.40850052
1421716085180.00,4.4792852,-9.473799,-4.6836104
1421716085201.00,3.1630723,-9.749975,-4.1489224
1421716085220.00,0.9674382,-9.734557,-1.3404624
1421716085240.00,-0.6397696,-9.929602,0.99183744
1421716085260.00,-1.744622,-9.818532,1.7645307
1421716085330.00,-1.6943266,-9.3116865,1.6977695
1421716085331.00,-1.5832576,-9.007519,1.2256513
1421716085332.00,-1.2731025,-8.879235,1.2704082
1421716085347.00,-0.7363188,-9.057665,1.4823674
1421716085360.00,-0.63213545,-9.198072,1.4506334
1421716085381.00,-0.8614586,-9.366472,1.5257771
1421716085400.00,-1.0469229,-9.71884,1.0463241
1421716085420.00,-1.1051518,-9.649085,0.49651748
1421716085440.00,-1.34166,-9.285491,0.138013
1421716085461.00,-1.1934682,-9.115893,0.07589218
1421716085480.00,-0.717458,-9.350006,0.08053253
1421716085500.00,0.008831634,-9.899215,0.04580475
1421716085520.00,0.710722,-9.977053,0.3156935
1421716085540.00,0.9476793,-9.905651,0.49337402
1421716085560.00,0.85367477,-10.394085,-0.11061996
1421716085580.00,0.55953646,-10.498269,-1.1958632
1421716085600.00,-0.06990463,-10.59377,-0.28725266
1421716085620.00,0.18815872,-10.522967,0.08741821
1421716085681.00,1.38492,-10.435848,-0.56687117
1421716085682.00,2.5393195,-11.922707,-0.80622345
1421716085683.00,2.906955,-13.740676,-1.2865746
1421716085700.00,2.4050486,-14.188694,-1.2169693
1421716085720.00,1.2042458,-13.630955,0.41867936
1421716085740.00,0.29353958,-11.464808,-1.4666501
1421716085760.00,0.38170624,-11.26692,-1.4069242
1421716085780.00,1.1647279,-11.771221,-0.6715036
1421716085800.00,1.780697,-12.592564,0.20088226
1421716085823.00,2.007625,-12.872631,3.1090348
1421716085840.00,2.097139,-13.839321,2.6301806
1421716085860.00,1.5178436,-12.597803,0.025147704
1421716085884.00,0.89513856,-12.309503,2.5484505
1421716085900.00,1.4212945,-14.388828,3.4467325
1421716085921.00,0.40894958,-12.923676,-1.7775536
1421716085987.00,-1.0819501,-11.442655,-0.4737648
1421716085988.00,-1.169518,-10.498419,-0.12678635
1421716085989.00,-0.9671388,-10.075398,-1.2957056
1421716086000.00,-1.3046869,-9.461076,-0.4074527
1421716086020.00,-1.4877563,-9.042995,-0.5755531
1421716086040.00,-1.4522799,-8.66548,-0.7273375
1421716086060.00,-1.9796333,-7.9911323,-1.7371376
1421716086080.00,-2.6644592,-6.778504,-2.4281008
1421716086102.00,-2.6861641,-4.449048,-2.5987458
1421716086120.00,-1.7884809,-2.9008176,-3.465294
1421716086140.00,-0.9250763,-2.2631438,-3.5413358
1421716086160.00,-0.16780105,-2.4670198,-4.344116
1421716086180.00,-0.2161505,-2.9081526,-4.7301636
1421716086200.00,-0.79020673,-3.7892203,-4.9308963
1421716086238.00,-1.8613793,-4.7942305,-5.9418936
1421716086240.00,-2.9955707,-4.99646,-7.843689
1421716086260.00,-4.0151005,-5.8496857,-7.7188487
1421716086316.00,-4.0055203,-8.509654,-5.7694526
1421716086317.00,-1.7833915,-11.437566,-5.9107585
1421716086324.00,-3.0222154,-11.100616,-5.7173605
1421716086341.00,-2.460134,-11.706407,-4.8945217
1421716086360.00,-2.6744883,-10.643467,-4.743486
1421716086380.00,-2.490521,-10.169851,-4.209696
1421716086404.00,-2.5451574,-9.791289,-3.4143996
1421716086420.00,-1.6941769,-9.44416,-2.8325596
1421716086441.00,-0.7030879,-9.532328,-2.271676
1421716086460.00,-0.003143463,-9.894125,-1.6084054
1421716086480.00,0.5785469,-9.859996,-0.9571097
1421716086500.00,0.66791105,-9.506132,-0.88031936
1421716086520.00,0.44951522,-9.034163,-1.0849439
1421716086540.00,-0.14684464,-8.865764,-1.0801538
1421716086560.00,-0.17827927,-8.981323,-0.13651611
1421716086603.00,0.4788542,-9.234596,0.74769515
1421716086604.00,1.843267,-9.913285,-0.06661148
1421716086666.00,2.3382876,-10.325678,-0.37901184
1421716086667.00,2.2667363,-10.204729,0.15627502
1421716086668.00,2.1960833,-9.330547,-1.1392808
1421716086682.00,2.219734,-9.539213,-1.4756314
1421716086700.00,1.9237994,-9.98319,-1.0803035
1421716086721.00,1.0644364,-9.8656845,-1.6732205
1421716086740.00,0.5719606,-9.869127,-0.6119275
1421716086760.00,-0.26449996,-9.843979,-0.7417076
1421716086781.00,-1.2590318,-9.431138,-0.8202942
1421716086800.00,-1.427731,-9.327553,-0.8866063
1421716086820.00,-1.299298,-9.139844,-0.8677455
1421716086840.00,-0.05643265,-8.754845,0.8771759
1421716086860.00,0.54756135,-8.665031,0.006286926
1421716086880.00,1.4302757,-9.005573,-1.1258088
1421716086900.00,1.4560221,-9.078621,-0.8111632
1421716086920.00,0.9406439,-8.891959,-0.2230362
1421716087010.00,0.30671218,-9.644295,-0.9659413
1421716087011.00,-0.07948471,-10.171349,-0.27273285
1421716087012.00,-0.49427214,-10.249636,0.40865022
1421716087013.00,-0.318837,-10.536589,0.92208254
1421716087020.00,0.6116281,-11.715537,2.3903792
1421716087041.00,0.99543,-12.535981,4.46267
1421716087060.00,-0.05643265,-12.967085,2.304757
1421716087080.00,0.06197113,-13.819113,0.23680755
1421716087100.00,-0.33365616,-14.501394,-0.23276596
1421716087120.00,-0.7225475,-14.498251,-0.5755531
1421716087140.00,-0.82238984,-13.932128,-1.2156221
1421716087160.00,-0.7762857,-12.882959,-2.2564077
1421716087180.00,-0.48918274,-12.635375,-3.1496003
1421716087200.00,0.19040406,-13.4076185,-4.6638513
1421716087266.00,1.0235715,-13.348192,-7.127728
1421716087267.00,2.2990692,-13.990656,-8.085136
1421716087273.00,1.6735198,-15.241605,0.29548553
1421716087282.00,-0.366438,-14.195281,5.6473064
1421716087300.00,-3.9227426,-11.579471,6.2328887
1421716087320.00,-3.7697608,-11.279045,7.16036
1421716087349.00,-1.4226416,-11.529325,-1.237327
1421716087361.00,0.8681946,-9.701027,-7.3784566
1421716087381.00,0.14400055,-8.735535,-2.7360106
1421716087400.00,-0.7500902,-7.6655593,-0.24728577
1421716087420.00,-0.97746736,-6.78524,0.7978409
1421716087440.00,-0.8240364,-6.137986,-0.53393966
1421716087460.00,-0.6547385,-4.9135323,-0.9912387
1421716087481.00,-1.5347584,-3.352728,-1.1141331
1421716087501.00,-2.1794677,-2.5565336,-1.2927117
1421716087524.00,-2.6616151,-1.6804056,-2.086062
1421716087540.00,-2.7186465,-1.3739928,-3.5817518
1421716087616.00,-1.762435,-1.6842974,-4.800517
1421716087617.00,-0.52346146,-1.7862355,-4.2252636
1421716087618.00,0.2377057,-1.9998413,-4.076323
1421716087625.00,0.13217515,-2.6414073,-5.5386324
1421716087640.00,-0.5046007,-2.8990214,-8.017328
1421716087662.00,-2.6238935,-2.9469218,-10.790462
1421716087680.00,-3.9329214,-8.375383,-8.469538
1421716087706.00,-1.2904664,-16.438217,-9.4976
1421716087721.00,-2.9512627,-13.111684,-3.5910325
1421716087740.00,-1.9202069,-7.9275146,-3.5512152
1421716087761.00,-2.8346553,-5.1000443,-4.8538065
1421716087781.00,-2.9855416,-8.149503,-4.3569894
1421716087801.00,-3.802842,-11.9039955,-4.000431
1421716087821.00,-2.2526655,-12.459939,-4.3935137
1421716087840.00,-1.2385244,-10.524764,-3.4771192
1421716087860.00,-1.3439053,-9.168434,-2.2272184
1421716087924.00,-1.6387922,-8.808433,-1.8110838
1421716087925.00,-1.0844948,-9.048384,-1.103655
1421716087926.00,0.07634125,-10.063273,-0.6782396
1421716087940.00,0.9303154,-11.036699,-0.44367737
1421716087960.00,0.98420334,-10.394384,-0.119002536
1421716087980.00,1.103655,-9.93514,-0.16675323
1421716088001.00,0.96698916,-9.264534,0.27093658
1421716088029.00,0.7497908,-9.315728,0.18262024
1421716088040.00,0.5084926,-10.056987,-0.10777588
1421716088076.00,0.5763016,-9.8888855,-0.5673202
1421716088085.00,0.67868865,-9.470206,-0.9982741
1421716088107.00,1.3813275,-9.142987,-0.84858537
1421716088121.00,1.6682808,-9.269175,-1.0633887
1421716088144.00,1.445544,-9.707014,-2.1457877
1421716088160.00,0.94648176,-9.202713,-2.134561
1421716088180.00,-0.015118561,-9.181756,-1.9923569
1421716088200.00,-0.25656646,-9.533076,-0.8731343
1421716088265.00,-0.47181883,-9.716295,-0.6385721
1421716088266.00,-0.66910857,-9.56481,-1.0250684
1421716088268.00,-0.60728717,-9.082513,-0.29548553
1421716088280.00,0.61073,-8.771909,-0.051792298
1421716088300.00,1.3066329,-8.805289,-0.97477293
1421716088320.00,1.0108479,-9.053773,-1.22625
1421716088340.00,0.41044647,-8.9795265,-0.5806425
1421716088361.00,0.24773483,-9.185648,-0.19130218
1421716088386.00,-0.001646576,-9.62708,0.4035608
1421716088400.00,-0.19893631,-10.71412,1.2283456
1421716088439.00,0.9608519,-12.106974,3.050656
1421716088442.00,1.1262579,-12.24798,3.0777497
1421716088460.00,-0.08771759,-12.260854,1.0181826
1421716088481.00,-0.4007167,-14.518908,0.809816
1421716088500.00,-0.5387297,-15.305073,0.28455827
1421716088520.00,-0.94992465,-14.938785,-1.2126284
1421716088541.00,-1.3786331,-14.590758,-2.4718099
1421716088560.00,-1.1008109,-13.809234,-3.4067657
1421716088629.00,-0.37227586,-12.876373,-3.6015105
1421716088630.00,0.5096901,-12.917987,-4.891528
1421716088631.00,0.76640624,-13.109738,-7.354506
1421716088642.00,0.9253757,-13.617332,-4.3060956
1421716088668.00,0.57959473,-15.011085,3.557502
1421716088680.00,0.74799454,-14.013858,2.396217
1421716088702.00,-1.821113,-11.4995365,2.9855416
1421716088722.00,-2.364483,-10.823992,5.96779
1421716088743.00,-1.7952168,-10.7049885,1.9088305
1421716088760.00,-0.31524444,-9.882898,-3.985612
1421716088800.00,-0.5828879,-9.031619,-3.6730618
1421716088801.00,-0.7946974,-7.530989,-1.7724642
1421716088821.00,-0.744402,-6.104306,0.42017624
1421716088841.00,-0.0902623,-6.1685224,1.1289524
1421716088861.00,-0.57675064,-5.672005,-0.9807605
1421716089008.00,-1.3947995,-5.322931,-1.1289524
1421716089008.00,-2.437082,-3.9651046,-1.4497353
1421716089010.00,-2.5689578,-2.4186704,-1.9559826
1421716089011.00,-2.2210813,-1.5706837,-2.782863
1421716089012.00,-2.405348,-1.7226177,-4.4668612
1421716089012.00,-2.0303779,-2.256857,-4.922214
1421716089014.00,-0.818947,-2.1595592,-4.0526724
1421716089022.00,0.40400985,-2.0531304,-5.3009267
1421716089041.00,1.0750644,-2.4563918,-8.592133
1421716089063.00,0.030087434,-3.5467246,-13.840519
1421716089084.00,-2.6071284,-8.358618,-8.364157
1421716089100.00,-2.9297075,-14.409485,-5.9567127
1421716089132.00,-4.7139974,-11.51226,-3.920198
1421716089140.00,-2.384691,-6.979985,-4.879403
1421716089193.00,-2.0387604,-6.1218195,-5.726641
1421716089195.00,-3.1906152,-8.876242,-4.4598255
1421716089202.00,-3.6312988,-11.124566,-3.997587
1421716089270.00,-2.1113594,-11.104658,-4.2200246
1421716089271.00,-1.493594,-9.94951,-2.9551547
1421716089271.00,-1.9886147,-9.136401,-1.9857706
1421716089281.00,-1.7637821,-9.052725,-1.6634908
1421716089300.00,-1.0253677,-9.723181,-1.1208692
1421716089321.00,0.17558487,-10.854079,-0.27707383
1421716089341.00,0.6993457,-11.201956,-0.18636246
1421716089361.00,1.3766872,-10.364746,0.66162413
1421716089381.00,1.5841557,-10.32972,0.27617568
1421716089400.00,1.800905,-10.424472,0.5971083
1421716089420.00,1.8748512,-10.498867,0.38005966
1421716089440.00,1.3057348,-9.702523,-0.24174729
1421716089460.00,0.9840537,-9.369765,-1.1554472
1421716089480.00,1.1448194,-9.368867,-1.0843451
1421716089507.00,1.3718971,-9.20885,-0.78631485
1421716089520.00,1.2981006,-9.34327,-1.7961149
1421716089599.00,0.7702982,-8.519683,-1.9480491
1421716089600.00,-0.41358992,-8.461604,-1.4148577
1421716089601.00,-1.241668,-8.907677,-1.1588901
1421716089602.00,-1.2316388,-8.640332,-1.0072554
1421716089621.00,-0.8132588,-9.241931,-0.9653426
1421716089641.00,-0.05852829,-9.628128,-0.5053491
1421716089661.00,0.56911653,-9.016949,-0.5959108
1421716089681.00,1.4160553,-9.054072,-1.0086026
1421716089700.00,1.3204042,-8.943602,-1.8498532
1421716089720.00,0.94273955,-8.996592,-1.6155903
1421716089741.00,-0.060623933,-9.7862,0.839604
1421716089761.00,-0.36673737,-11.503279,1.6464262
1421716089781.00,0.3570076,-12.8045225,2.273622
1421716089800.00,-0.52885026,-13.145663,1.8238074
1421716089822.00,-1.4786252,-14.860048,1.497486
1421716089840.00,-1.8025516,-15.163018,0.8003856
1421716089948.00,-1.7738113,-14.072685,-1.1750565
1421716089949.00,-1.8974543,-13.524226,-2.5613236
1421716089951.00,-1.0921289,-13.088333,-3.199297
1421716089952.00,-0.5519023,-12.913197,-3.0485604
1421716089952.00,-0.0902623,-13.197006,-3.5140924
1421716089961.00,-0.0782872,-12.890743,-6.2504025
1421716089980.00,0.23815475,-14.21025,-7.9598475
1421716090000.00,0.23710693,-14.994319,-0.039218444
1421716090024.00,-1.6603473,-13.8330345,5.292095
1421716090041.00,-5.062622,-11.548934,3.8272412
1421716090061.00,-4.550537,-10.902129,4.642446
1421716090080.00,-2.4860303,-11.020982,0.97656924
1421716090105.00,0.80772036,-10.606644,-6.467451
1421716090121.00,1.0844948,-9.128018,-3.9225929
1421716090141.00,0.8162526,-8.599168,1.0213262
1421716090205.00,0.012274475,-7.681726,0.58079225
1421716090206.00,-0.16884887,-6.6990194,0.19294876
1421716090207.00,-0.96938413,-5.4293594,-0.61552
1421716090220.00,-1.8414706,-3.6086957,-1.2510983
1421716090258.00,-2.6951454,-1.5587087,-1.3751903
1421716090260.00,-2.5366251,-0.29758117,-1.7001644
1421716090303.00,-2.1709356,-0.36943176,-3.1415172
1421716090304.00,-2.350113,-1.0095007,-4.4343786
1421716090321.00,-1.6848962,-1.4076728,-3.9022353
1421716090348.00,-1.0654843,-1.6995658,-4.0546184
1421716090362.00,-0.23605911,-2.1655467,-5.435497
1421716090385.00,-0.40865022,-2.317331,-9.765094
1421716090401.00,-1.886976,-4.7210326,-16.122522
1421716090421.00,-3.960015,-11.115735,-7.264244
1421716090441.00,-3.549868,-13.795313,-3.3711398
1421716090462.00,-5.1114206,-10.008786,-3.4750237
1421716090481.00,-2.8416908,-5.6890697,-5.787415
1421716090558.00,-2.7416985,-7.0693493,-5.206174
1421716090559.00,-5.425019,-10.342143,-4.4234514
1421716090560.00,-3.7931123,-11.950997,-4.9946637
1421716090561.00,-2.3022125,-10.96874,-3.6227665
1421716090581.00,-2.1266277,-9.41572,-2.0820205
1421716090601.00,-2.2112017,-8.63674,-1.782643
1421716090621.00,-1.5383509,-9.012758,-1.9613713
1421716090641.00,0.008232879,-9.977652,-1.275348
1421716090668.00,1.1135345,-10.614577,-0.9858499
1421716090681.00,1.5322137,-10.337803,-0.1540297
1421716090702.00,1.76483,-9.616602,0.8969348
1421716090733.00,1.1979588,-9.632319,-0.032482453
1421716090741.00,1.0138417,-9.739048,-0.10208771
1421716090761.00,1.1096425,-9.731114,0.62554914
1421716090781.00,0.61402315,-9.363179,0.060324553
1421716090801.00,0.6436615,-9.608369,-1.6302599
1421716090821.00,1.291215,-9.530231,-2.4007077
1421716090892.00,1.9278411,-9.451345,-1.4100678
1421716090893.00,1.7058526,-9.340426,-1.3560301
1421716090895.00,0.6158194,-8.65575,-2.3670278
1421716090902.00,-0.29383895,-9.886042,-2.0122654
1421716090921.00,-0.88885164,-9.6847105,-0.6819818
1421716090941.00,-1.5093113,-8.789272,-0.6914122
1421716090961.00,-1.201701,-9.307345,-0.9131012
1421716090981.00,-0.1498384,-9.445807,-0.41358992
1421716091001.00,0.3463797,-8.771609,-0.15552658
1421716091021.00,1.2596306,-9.099727,-0.35640883
1421716091044.00,1.6793578,-9.3806925,-0.6893166
1421716091061.00,0.84349597,-9.172476,-0.6408174
1421716091081.00,-0.2749782,-9.681268,-0.25656646
1421716091101.00,-0.3743715,-11.769126,2.1743784
1421716091120.00,-0.17453705,-13.101505,2.38993
1421716091160.00,-1.1424243,-13.976286,0.046104126
1421716091165.00,-1.8938617,-15.52287,0.57031405
1421716091235.00,-2.015409,-15.283368,0.019309845
1421716091236.00,-2.2209315,-14.021492,-1.0487192
1421716091236.00,-1.9520906,-13.3353195,-1.4215938
1421716091244.00,-1.5274237,-13.275294,-2.1734803
1421716091261.00,-0.943488,-14.057866,-3.6392322
1421716091280.00,0.122894436,-13.241913,-5.833968
1421716091301.00,-0.26090744,-12.451108,-8.167765
1421716091321.00,-0.13831238,-14.159655,-7.0181556
1421716091341.00,0.120948486,-13.958623,5.069807
1421716091361.00,-2.571802,-12.156072,6.089936
1421716091381.00,-4.307742,-10.744058,4.8572493
1421716091401.00,-2.9470716,-10.432106,3.0259576
1421716091421.00,-0.53274214,-11.477982,-1.3715978
1421716091441.00,1.7073495,-11.245515,-5.590125
1421716091461.00,0.4061055,-8.675959,-1.7074993
1421716091481.00,-0.41134462,-7.4934173,0.14894028
1421716091561.00,-1.1850857,-6.8913693,0.5721103
1421716091563.00,-0.84993255,-6.7753606,-0.7228468
1421716091564.00,-1.6851956,-5.88127,-1.4651532
1421716091565.00,-2.7553203,-4.423751,-1.3705499
1421716091581.00,-3.2970438,-3.1895673,-1.9866687
1421716091601.00,-3.0557456,-2.5497978,-2.4936645
1421716091621.00,-2.5021966,-2.1400995,-3.035837
1421716091646.00,-2.0537293,-1.7067508,-3.6765046
1421716091664.00,-2.49576,-1.8973045,-4.2797503
1421716091682.00,-2.7181976,-2.373614,-3.9862106
1421716091701.00,-1.2370276,-2.5596771,-4.6047244
1421716091723.00,-0.09175918,-2.5014482,-6.5379543
1421716091741.00,-0.015567627,-2.4740553,-9.610166
1421716091763.00,-1.9199076,-4.162394,-14.61396
1421716091781.00,-3.5087037,-7.5067396,-9.371861
1421716091849.00,-2.8129504,-10.384954,-6.4614635
1421716091850.00,-7.986642,-8.708141,-1.3832735
1421716091851.00,-4.522845,-7.3765106,-7.4401283
1421716091861.00,-2.7779233,-7.195088,-6.3999414
1421716091881.00,-4.716392,-9.285192,-4.9681687
1421716091901.00,-4.601132,-10.780731,-4.9038024
1421716091921.00,-3.3925452,-10.128837,-4.456832
1421716091960.00,-3.0761032,-9.157058,-3.266208
1421716091961.00,-3.1750474,-8.5116005,-2.8274703
1421716091982.00,-3.1552885,-8.54079,-2.3942711
1421716092002.00,-2.2296135,-9.030421,-1.6522641
1421716092021.00,-0.49382308,-9.623487,-0.5457651
1421716092041.00,0.5090913,-9.869427,-0.21719833
1421716092061.00,1.3889617,-9.659264,-0.06256989
1421716092081.00,1.4801221,-9.761202,-0.06960525
1421716092101.00,1.4247372,-10.825488,0.40954834
1421716092121.00,1.196911,-11.011252,1.1630814
1421716092184.00,1.3377681,-10.285412,0.916544
1421716092185.00,0.62165725,-9.661209,-0.21824616
1421716092186.00,0.4963678,-9.086854,-0.90157515
1421716092201.00,0.445773,-7.8664417,-0.9333092
1421716092221.00,0.8693921,-7.5160203,0.030386811
1421716092241.00,1.0647359,-8.00191,-0.13711487
1421716092261.00,0.9515712,-9.174122,-0.43304947
1421716092281.00,0.6994954,-9.9275055,-0.36119887
1421716092301.00,0.17468673,-9.772279,-0.14385086
1421716092326.00,-0.47930327,-9.53592,-0.7671547
1421716092371.00,-0.3849994,-9.385932,-0.78347075
1421716092372.00,-0.5689668,-8.853788,-0.46134064
1421716092381.00,-0.7972421,-8.77116,-0.07125183
1421716092401.00,-0.93375826,-8.893007,0.7069798
1421716092421.00,-0.14654526,-9.284892,0.9633966
1421716092441.00,1.0749147,-9.748927,0.36404297
1421716092461.00,2.0422032,-9.837842,0.2362088
1421716092543.00,1.7203724,-10.337653,0.36733612
1421716092544.00,-0.33979338,-11.018737,0.56148237
1421716092545.00,-2.0989351,-11.004216,0.4710704
1421716092546.00,-1.5952327,-11.145523,-0.5882767
1421716092561.00,0.89109695,-13.449532,-0.74649763
1421716092581.00,2.8017237,-15.470778,1.1566447
1421716092604.00,3.4212854,-15.639777,2.1395009
1421716092621.00,0.95246935,-12.914394,-0.6345305
1421716092641.00,-1.2021501,-11.167976,-1.7122893
1421716092664.00,-1.7413288,-10.399324,-1.9407142
1421716092681.00,-1.1805949,-10.348281,-1.3049862
1421716092712.00,-0.48080018,-10.566976,1.7676741
1421716092721.00,0.14879058,-10.059531,6.7725163
1421716092770.00,-0.50235534,-10.556647,3.726351
1421716092772.00,-1.7504599,-11.897859,1.7079483
1421716092781.00,-2.5048912,-11.187137,0.48364425
1421716092865.00,-1.968706,-11.172018,-0.8587642
1421716092866.00,-1.3081298,-11.259136,0.1817221
1421716092867.00,-1.2317885,-9.699829,0.1594185
1421716092868.00,-0.8681946,-8.760532,0.6538403
1421716092881.00,-0.58109164,-8.182883,1.6714243
1421716092901.00,-0.7243437,-6.824159,1.6756155
1421716092921.00,-0.88540876,-6.4194007,1.973047
1421716092941.00,-1.1337423,-5.6350317,2.3787034
1421716092961.00,-1.2723541,-4.8235693,2.1246817
1421716092981.00,-1.1593392,-4.008814,1.2774435
1421716093001.00,-1.8091378,-3.338358,0.36194733
1421716093021.00,-1.904789,-3.206931,-0.53828067
1421716093041.00,-1.961521,-5.056934,-1.875001
1421716093062.00,-1.3603711,-10.717413,-5.6079383
1421716093081.00,1.8531463,-18.06159,-8.787776
1421716093178.00,1.5744259,-17.820742,-9.873468
1421716093182.00,-0.72958285,-12.290941,-8.397986
1421716093183.00,-2.7373576,-8.547825,-5.4763618
1421716093185.00,-3.292104,-7.3684273,-1.0026151
1421716093186.00,-2.0216959,-6.354436,1.3739928
1421716093201.00,-0.966091,-9.000783,1.0520123
1421716093221.00,-0.7694,-16.057259,0.94842774
1421716093241.00,-2.8797116,-15.496375,-1.2663666
1421716093261.00,-1.8890717,-8.430469,1.2963043
1421716093281.00,-2.704426,-4.8811994,4.294719
1421716093301.00,-2.1930895,-6.249654,6.218369
1421716093321.00,-1.4202466,-8.147857,4.887187
1421716093341.00,0.14474899,-11.500585,4.1017704
1421716093361.00,1.2921131,-12.712315,1.0475217
1421716093381.00,2.4168742,-11.447595,-1.2123289
1421716093401.00,2.12064,-9.570349,-1.8113832
1421716093471.00,-0.41613466,-9.259295,-2.6078768
1421716093472.00,-1.5588584,-9.464219,-1.6552578
1421716093473.00,-0.4867877,-9.335486,0.82583266
1421716093481.00,0.6027965,-9.383238,1.9978954
1421716093501.00,0.19609222,-9.344768,0.79484713
1421716093549.00,-0.91893905,-9.102272,0.7773335
1421716093550.00,-1.617686,-9.111103,0.46014312
1421716093565.00,-1.6584014,-8.82939,0.2868036
1421716093581.00,-1.0937755,-9.009016,0.56372774
1421716093601.00,-0.40266266,-9.510324,0.97597045
1421716093621.00,0.11301498,-9.879605,1.1828402
1421716093641.00,0.17079483,-9.738749,0.8798703
1421716093661.00,0.22258712,-9.887689,0.1737886
1421716093681.00,0.2933899,-10.05519,-0.99902254
1421716093701.00,0.3662883,-9.706265,-1.0422826
1421716093721.00,0.45355684,-9.183553,0.50864226
1421716093741.00,0.28725266,-10.14171,1.7323476
1421716093764.00,-0.2588118,-11.043136,-0.48214737
1421716093834.00,0.5959108,-12.20023,-3.1340327
1421716093835.00,2.3586452,-13.756543,-0.94827807
1421716093836.00,3.4539175,-14.525345,1.370999
1421716093852.00,2.9355454,-13.507462,0.30027556
1421716093861.00,0.39068756,-11.631862,-1.0463241
1421716093881.00,-1.7803977,-10.249486,-1.5477813
1421716093904.00,-0.7946974,-10.341545,-0.36658767
1421716093925.00,0.7189549,-10.651251,1.7304016
1421716093984.00,1.5185921,-11.487112,1.5820601
1421716093988.00,1.8580861,-11.886632,1.6805552
1421716093990.00,1.6349002,-11.952195,2.5424628
1421716094005.00,0.9556128,-11.987672,0.89678514
1421716094021.00,0.09190887,-10.921738,0.46807662
1421716094043.00,0.2163002,-11.202703,5.622907
1421716094061.00,-0.7294331,-9.706116,1.4715898
1421716094132.00,-1.1337423,-9.358389,0.737666
1421716094133.00,-1.4097683,-8.478219,0.9080118
1421716094133.00,-1.1117381,-8.108189,1.2196637
1421716094141.00,-1.0380913,-7.6155634,1.4879059
1421716094161.00,-1.6666342,-6.8801427,1.843267
1421716094184.00,-1.8276993,-6.249055,1.9474503
1421716094201.00,-1.950893,-6.0020685,1.8278489
1421716094221.00,-2.5493486,-5.7505918,0.67614394
1421716094241.00,-2.9701235,-5.789361,-1.1696677
1421716094261.00,-3.4172437,-6.2468095,-2.9624894
1421716094281.00,-3.099305,-8.985664,-3.7663178
1421716094312.00,-1.3067825,-13.083243,-4.547394
1421716094321.00,-0.09086105,-14.654825,-4.204307
1421716094368.00,1.239722,-13.111235,-6.1313996
1421716094369.00,1.5681391,-11.122022,-9.216784
1421716094381.00,-0.94363767,-9.319021,-6.860683
1421716094456.00,-2.1335135,-8.498128,-1.549877
1421716094458.00,-1.7983603,-8.133487,0.8583151
1421716094463.00,-0.3740721,-12.032129,0.77419007
1421716094464.00,-0.22722748,-15.377672,2.2998176
1421716094481.00,-2.6762846,-11.748768,0.703537
1421716094501.00,-2.9946725,-6.4503865,3.081492
1421716094521.00,-3.064577,-5.7914567,4.5788283
1421716094545.00,-3.0273046,-7.104077,4.7394443
1421716094565.00,-1.7435743,-10.212812,3.8378692
1421716094586.00,0.13307327,-12.118949,3.4382002
1421716094601.00,1.9401155,-11.842922,0.07005432
1421716094621.00,2.727029,-9.992471,-2.7592123
1421716094641.00,2.0916004,-9.336684,-2.8056157
1421716094661.00,0.9009764,-9.992171,-1.3765374
1421716094681.00,-0.49666718,-9.988279,0.5956114
1421716094703.00,-0.042062532,-9.862242,1.8347347
1421716094721.00,0.5162764,-9.462422,1.6203804
1421716094763.00,-0.24803421,-9.464369,0.3600014
1421716094764.00,-1.2380754,-9.393566,0.6521938
1421716094816.00,-1.4536271,-9.115444,0.80846876
1421716094817.00,-0.9054671,-8.935069,0.497715
1421716094833.00,-0.84065187,-9.428742,0.5240602
1421716094841.00,-0.9840537,-9.645493,0.8798703
1421716094863.00,-1.1660751,-9.272318,0.9873468
1421716094881.00,-1.1258088,-9.039851,0.8761281
1421716094901.00,-0.9201366,-9.444759,0.7882608
1421716094922.00,-0.85127974,-9.740544,0.321232
1421716094941.00,-0.31090346,-9.719588,-0.8493338
1421716094961.00,0.6688092,-10.092762,-1.5750247
1421716094982.00,1.4084212,-10.082434,0.09205856
1421716095001.00,1.0109977,-10.700349,2.0627105
1421716095021.00,-0.50130755,-11.222463,-0.025896149
1421716095041.00,-0.28755203,-11.607612,-1.9673588
1421716095061.00,1.3308824,-12.851376,-0.6002518
1421716095081.00,2.8945308,-14.619199,1.127156
1421716095187.00,2.444866,-13.408217,-0.60294616
1421716095188.00,0.37212616,-12.177776,-3.004552
1421716095189.00,-1.6130457,-11.140433,-2.6668541
1421716095190.00,-0.8909473,-11.369158,-2.2528152
1421716095192.00,0.34847534,-11.948303,0.05852829
1421716095201.00,1.8287472,-13.104948,-0.43050477
1421716095222.00,2.3266118,-13.164524,1.3150154
1421716095241.00,1.775907,-13.742323,2.6201513
1421716095261.00,1.4670992,-13.643977,2.452051
1421716095281.00,0.59411454,-13.85923,3.853886
1421716095301.00,-0.16001724,-15.367493,-0.36733612
1421716095321.00,-1.1793975,-14.115347,-0.26524842
1421716095341.00,-2.593357,-11.23803,-0.49726593
1421716095361.00,-1.4920971,-10.033485,-1.3289365
1421716095425.00,-0.69096315,-9.365574,-1.0785072
1421716095425.00,-0.4896318,-9.028924,0.3356021
1421716095426.00,-0.8096663,-8.827144,-0.19414628
1421716095441.00,-1.0548564,-7.914941,-0.89678514
1421716095461.00,-1.6637901,-6.6666865,-2.0266356
1421716095482.00,-2.7854078,-4.8247666,-2.4593856
1421716095501.00,-2.7881021,-3.09691,-2.7869046
1421716095521.00,-1.9410137,-2.1275258,-2.8318112
1421716095541.00,-1.1641291,-2.3135889,-2.810256
1421716095594.00,-1.2786411,-2.433789,-4.211492
1421716095595.00,-1.963467,-3.0711634,-6.127358
1421716095601.00,-2.665956,-4.2978625,-6.2571383
1421716095621.00,-2.1902454,-5.758226,-6.459667
1421716095645.00,-2.0239413,-6.4188023,-6.919511
1421716095661.00,-2.725083,-5.134323,-6.6330066
1421716095682.00,-3.4096098,-5.3711305,-5.9222846
1421716095705.00,-3.6823425,-8.746462,-7.3482194
1421716095754.00,-2.5490491,-10.706486,-6.82356
1421716095755.00,-2.9115953,-10.73358,-6.584807
1421716095762.00,-3.4220338,-10.181078,-4.7639933
1421716095781.00,-4.2474174,-9.121731,-4.8467712
1421716095801.00,-3.6558475,-9.265582,-4.699178
1421716095823.00,-3.2458503,-9.706415,-4.1095543
1421716095841.00,-2.7906468,-10.096953,-3.3569193
1421716095861.00,-1.9172131,-10.018966,-2.9587471
1421716095883.00,-1.0307565,-9.5455,-2.3833437
1421716095901.00,-0.27138564,-9.399404,-2.1472847
1421716095921.00,0.2176474,-9.3260565,-1.5542179
1421716095946.00,0.77838135,-9.241931,-0.9807605
1421716095962.00,1.0653347,-9.042097,-0.97492266
1421716096044.00,0.64800245,-9.111852,-0.9645941
1421716096045.00,0.03173401,-8.538544,-1.3410612
1421716096054.00,0.15148498,-8.883427,-0.14235397
1421716096055.00,1.2570859,-9.355395,-0.45295808
1421716096125.00,1.7473165,-9.433084,-1.6217276
1421716096126.00,1.6889378,-10.168205,-0.94827807
1421716096127.00,1.8474582,-10.601554,-0.3409909
1421716096129.00,1.4566209,-9.801168,-1.2735516
1421716096141.00,1.2566369,-9.950258,-2.8853998
1421716096162.00,0.20821701,-9.896221,-4.1358995
1421716096182.00,0.16510665,-9.274414,-1.7914746
1421716096201.00,-0.26899064,-9.556128,-0.061222687
1421716096222.00,-0.48334488,-9.583671,0.6027965
1421716096242.00,-0.35087037,-8.984467,0.12648697
1421716096262.00,-0.034278717,-9.067095,0.21644989
1421716096282.00,0.0902623,-9.26663,-0.5340893
1421716096302.00,0.4403842,-9.2504635,-0.2746788
1421716096322.00,0.6752458,-9.279802,0.22737716
1421716096341.00,0.7222481,-9.53577,-0.40969804
1421716096361.00,0.929567,-9.542506,-0.19294876
1421716096436.00,0.64800245,-8.995993,-0.41358992
1421716096437.00,0.15477814,-9.212742,-1.0111473
1421716096441.00,-0.36299515,-10.058483,0.30581406
1421716096447.00,0.08951385,-12.030931,2.3790028
1421716096492.00,0.79140425,-13.259427,1.7925224
1421716096493.00,-0.22228774,-13.581108,0.7405101
1421716096501.00,-1.0785072,-15.131883,1.5536193
1421716096521.00,-2.0511847,-15.016473,1.4997313
1421716096541.00,-2.366429,-13.984669,-0.9298663
1421716096561.00,-1.9658619,-12.945979,-2.9761112
1421716096581.00,-1.3222004,-12.377162,-3.7952077
1421716096602.00,-0.64545774,-12.614119,-4.117338
1421716096626.00,-0.42167312,-12.497661,-4.2617874
1421716096642.00,-0.27976823,-12.009377,-5.161417
1421716096672.00,-0.41164398,-12.923077,-5.874833
1421716096682.00,0.57660097,-13.27215,-0.4403842
1421716096754.00,-0.9937834,-12.787309,3.7314405
1421716096756.00,-4.1579037,-10.599758,3.29884
1421716096757.00,-4.2113423,-9.685309,2.6200018
1421716096765.00,-1.4136603,-10.631791,0.7836205
1421716096781.00,0.8002359,-11.247311,-1.7064514
1421716096805.00,1.2484039,-9.302555,-3.3712893
1421716096821.00,0.007783813,-8.2848215,-2.182761
1421716096845.00,-1.0532098,-7.7339673,-0.803529
1421716096861.00,-1.7562977,-7.7067237,0.07259903
1421716096881.00,-1.7055533,-7.157067,-0.93286014
1421716096927.00,-1.3907579,-6.6325574,-1.8491048
1421716096933.00,-1.660946,-5.4393888,-2.2013223
1421716096942.00,-2.3468199,-4.439019,-2.146237
1421716096962.00,-2.2044659,-3.6245627,-2.875221
1421716096982.00,-2.0570223,-2.3222709,-3.8353243
1421716097001.00,-2.5267456,-1.8423687,-4.7735734
1421716097021.00,-2.5224047,-1.9763402,-4.4000998
1421716097086.00,-0.9701326,-2.151476,-4.281397
1421716097087.00,0.32422578,-2.3878345,-5.3268228
1421716097087.00,0.6451584,-2.9653335,-6.3637166
1421716097105.00,-0.86295545,-3.078199,-7.9352984
1421716097121.00,-3.219056,-4.174669,-11.005564
1421716097141.00,-3.89041,-9.504036,-9.861793
1421716097161.00,-2.0763323,-12.977413,-7.519613
1421716097181.00,-3.658991,-9.687105,-3.0009594
1421716097202.00,-3.47203,-7.081175,-5.7260427
1421716097225.00,-2.069746,-7.3908806,-6.619834
1421716097243.00,-3.2009437,-10.572515,-4.9334407
1421716097262.00,-4.0728803,-11.991414,-4.5225453
1421716097281.00,-3.072361,-10.973381,-4.477938
1421716097303.00,-2.366878,-9.219478,-3.0638287
1421716097518.00,-2.3207738,-8.421638,-2.170786
1421716097520.00,-2.1396506,-8.417446,-1.8744022
1421716097521.00,-0.87433183,-9.377549,-0.80787003
1421716097522.00,0.35610947,-10.386302,-0.3580554
1421716097523.00,0.56432647,-10.230775,-0.7427554
1421716097524.00,0.39712417,-9.448951,-0.31898665
1421716097525.00,0.3001259,-9.0325165,0.11466156
1421716097526.00,0.24414231,-8.895402,0.3662883
1421716097527.00,0.83690965,-9.508677,0.1817221
1421716097529.00,1.3192067,-10.502161,0.17139359
1421716097530.00,1.7878821,-10.323731,0.27662477
1421716097543.00,1.8890717,-9.68486,-0.4736151
1421716097603.00,2.4405248,-9.539812,-0.9571097
1421716097604.00,2.7014322,-9.677226,-0.585732
1421716097606.00,2.042353,-9.857152,-0.8966354
1421716097641.00,0.3318599,-9.219178,-2.0450473
1421716097642.00,-0.6746471,-8.943751,-1.3395643
1421716097665.00,-1.0672805,-9.576935,-1.5980768
1421716097726.00,-0.58558226,-9.424702,-0.91893905
1421716097727.00,-0.55863833,-9.1009245,-0.30147308
1421716097728.00,-0.24698639,-9.298963,-0.44906616
1421716097745.00,0.7499405,-9.241482,-0.2532733
1421716097767.00,0.95531344,-7.9921803,0.4128415
1421716097783.00,0.99842376,-8.413255,-0.7337741
1421716097823.00,0.92118436,-9.282348,-1.4440471
1421716097824.00,0.6018984,-9.566008,-1.339265
1421716097842.00,0.36703673,-9.962234,-0.17199235
1421716097862.00,0.67898804,-10.808424,1.4073733
1421716097881.00,1.4308745,-11.9216585,2.5104296
1421716097902.00,1.2957056,-12.103082,2.7081683
1421716097922.00,-0.104782104,-12.234359,1.9019449
1421716097942.00,-0.63932055,-14.1481285,0.9880952
1421716097962.00,-0.8681946,-15.177089,0.255818
1421716097982.00,-1.3310322,-14.675482,-0.5517526
1421716098046.00,-1.8136286,-13.741125,-1.2778926
1421716098047.00,-1.7615368,-12.879217,-1.9520906
1421716098047.00,-1.3850697,-12.131372,-3.0279036
1421716098062.00,-0.97192883,-12.439732,-3.5528617
1421716098081.00,-0.1405577,-12.826676,-4.3956094
1421716098102.00,0.8174501,-12.365037,-7.0150123
1421716098121.00,1.7308507,-13.138478,-5.909561
1421716098141.00,1.5813117,-14.631923,2.561174
1421716098162.00,-1.4784755,-13.590688,3.5636394
1421716098182.00,-4.321663,-11.276201,5.979765
1421716098209.00,-3.8752913,-9.498648,5.8725877
1421716098222.00,-1.6606467,-9.730216,0.9339079
1421716098242.00,1.4409037,-9.878557,-6.693032
1421716098272.00,1.287323,-8.844209,-4.3882747
1421716098282.00,-1.0443782,-7.1961355,-1.6157401
1421716098301.00,-1.9248472,-6.613098,0.6264473
1421716098321.00,-1.6293617,-6.0881395,-0.42002654
1421716098427.00,-1.0000703,-5.758974,-1.7721648
1421716098428.00,-1.8121316,-4.589007,-2.2191353
1421716098429.00,-2.4474106,-3.7829332,-1.629212
1421716098430.00,-2.7095156,-3.275339,-2.1513262
1421716098431.00,-2.5750952,-2.4225624,-3.3013847
1421716098442.00,-2.3376887,-1.8944604,-4.9422727
1421716098462.00,-2.3704705,-2.022594,-4.453988
1421716098482.00,-1.4135106,-2.1643493,-4.2834926
1421716098505.00,0.2891986,-2.5536895,-5.621111
1421716098522.00,0.74036044,-3.1874716,-7.345525
1421716098542.00,-0.36524048,-4.0628514,-12.416979
1421716098561.00,-2.4376807,-7.075337,-11.139086
1421716098581.00,-3.4440382,-10.274484,-8.125553
1421716098601.00,-3.731141,-10.692864,-2.1960833
1421716098622.00,-3.667224,-7.836055,-5.3275714
1421716098712.00,-1.3106744,-7.2557116,-6.0441313
1421716098714.00,-2.7547216,-9.172027,-4.243376
1421716098715.00,-3.7871246,-10.952125,-5.0349298
1421716098716.00,-2.616409,-10.72864,-5.5197716
1421716098725.00,-2.0450473,-10.132429,-4.5514355
1421716098742.00,-1.9118243,-9.4049425,-3.6851866
1421716098762.00,-1.3834232,-8.973539,-3.1379247
1421716098782.00,-1.044977,-9.048683,-2.8714788
1421716098802.00,-0.8177495,-9.166787,-2.561174
1421716098822.00,-0.4008664,-9.56451,-2.0204983
1421716098842.00,0.23965164,-9.696237,-1.6221766
1421716098862.00,0.41748184,-9.474697,-1.2513977
1421716098882.00,0.64919996,-9.132659,-0.6489006
1421716098904.00,0.9732761,-9.441317,-0.23022126
1421716098922.00,0.5815407,-9.72363,-0.5777985
1421716098941.00,0.4736151,-9.607022,-0.5968089
1421716098962.00,0.48828462,-9.534872,-0.97567105
1421716098982.00,0.52540743,-9.506881,-1.0264156
1421716099040.00,0.20612137,-9.361532,-0.6703061
1421716099042.00,0.30341902,-8.994945,-0.46268785
1421716099043.00,0.6794371,-9.072334,-0.67225206
1421716099062.00,1.1485616,-9.0623045,-1.391207
1421716099086.00,1.2581336,-9.457783,-1.0963202
1421716099102.00,1.3615686,-9.883647,-0.5632787
1421716099164.00,1.472937,-9.923314,-0.90037763
1421716099169.00,1.171464,-9.813593,-0.9065149
1421716099171.00,0.7991881,-9.894574,-0.5661228
1421716099182.00,0.06256989,-9.884545,-0.05463638
1421716099206.00,-0.6664142,-9.000034,-0.36164796
1421716099223.00,-0.7378157,-9.073381,-0.7909552
1421716099242.00,-0.034278717,-9.331594,-0.6144722
1421716099262.00,0.14804214,-9.676328,-0.85277665
1421716099282.00,0.24638763,-9.010363,-0.35251695
1421716099357.00,0.17393829,-8.3587675,-8.98E-04
1421716099358.00,0.19669098,-9.181008,-1.0024654
1421716099359.00,0.68946624,-9.838591,-1.5480808
1421716099367.00,0.90441924,-9.507778,-1.2476555
1421716099382.00,1.0943742,-9.160051,-0.6465056
1421716099401.00,1.0716215,-9.486822,-0.062869266
1421716099422.00,1.3127701,-10.432555,0.69470537
1421716099446.00,1.9119741,-11.172766,1.2189152
1421716099462.00,1.2894187,-11.333382,1.5679893
1421716099483.00,-0.4379892,-11.116333,1.1325449
1421716099503.00,-1.5458354,-11.845168,1.2904664
1421716099522.00,-2.0050805,-13.074711,1.9700532
1421716099543.00,-1.3903089,-14.154416,1.7733623
1421716099597.00,-0.58198977,-14.343922,-0.063767396
1421716099599.00,-0.59127045,-14.091396,-1.1297008
1421716099602.00,-1.0005194,-13.154944,-1.5108082
1421716099669.00,-1.334924,-11.871064,-2.365531
1421716099670.00,-1.3648617,-11.363619,-3.1669643
1421716099671.00,-0.8360115,-12.245436,-3.832181
1421716099681.00,0.12693603,-13.141172,-4.5223956
1421716099702.00,1.0150392,-13.253589,-6.2785435
1421716099722.00,0.83541274,-12.068354,-6.8957105
1421716099752.00,-0.1978885,-10.684631,5.0442104
1421716099762.00,-1.4079721,-13.048216,2.863695
1421716099782.00,-3.5028658,-10.951077,-1.7920734
1421716099802.00,-3.3510814,-10.676548,1.8414706
1421716099824.00,-1.0267149,-11.405682,2.017804
1421716099842.00,0.82238984,-10.769355,-1.267564
1421716099862.00,1.6814533,-9.306447,-2.9482691
1421716099882.00,0.67359924,-8.132738,-1.7136365
1421716099902.00,-1.592688,-7.9721217,-1.0711725
1421716099922.00,-2.5747957,-7.056925,-0.41718248
1421716099942.00,-1.9392173,-6.329887,-1.5052698
1421716099962.00,-1.9642154,-4.8879356,-2.5767417
1421716100050.00,-2.8410919,-3.5651362,-2.609224
1421716100051.00,-3.3133597,-2.9048593,-3.137326
1421716100052.00,-2.8987222,-2.730921,-3.8470001
1421716100053.00,-2.6708958,-2.769391,-4.9514036
1421716100062.00,-2.431843,-2.4536974,-4.2882824
1421716100081.00,-2.0152593,-2.586172,-4.180357
1421716100102.00,-0.7388635,-3.5444791,-4.9659233
1421716100122.00,-0.040565643,-3.5343003,-5.9635987
1421716100142.00,-1.045426,-2.6755362,-6.467002
1421716100162.00,-2.2272184,-1.8543439,-6.6569567
1421716100181.00,-3.8847218,-2.246678,-8.414452
1421716100202.00,-4.8442264,-7.0130663,-11.67093
1421716100222.00,-3.8755906,-11.529175,-9.501342
1421716100242.00,-0.98195803,-11.013048,-6.1522064
1421716100263.00,-2.730921,-7.3054085,-4.608916
1421716100282.00,-3.5151403,-6.365363,-5.993686
1421716100351.00,-2.819387,-8.380024,-5.967341
1421716100352.00,-3.755241,-10.547516,-5.7270904
1421716100353.00,-3.4001794,-10.751392,-5.8731866
1421716100364.00,-2.9970675,-9.990075,-4.964277
1421716100382.00,-2.0892055,-8.836425,-3.8833745
1421716100402.00,-1.5801141,-8.374036,-3.1677127
1421716100437.00,-0.68752027,-8.674012,-2.9937744
1421716100446.00,-0.37018022,-9.127419,-2.1516256
1421716100482.00,0.20148101,-9.919722,-1.7384849
1421716100483.00,1.1165282,-9.955797,-1.6097525
1421716100502.00,1.0307565,-9.225166,-1.7103434
1421716100522.00,0.83032334,-8.682694,-1.0403366
1421716100542.00,0.45894563,-8.683443,-0.8265811
1421716100562.00,0.65084654,-9.122479,-0.15088624
1421716100582.00,1.0304571,-10.183174,0.10044113
1421716100602.00,1.1603869,-10.729987,-4.49E-04
1421716100662.00,1.2578343,-10.224937,-0.9824071
1421716100664.00,1.5862514,-9.630672,-2.206262
1421716100664.00,1.7634828,-9.304951,-1.8426682
1421716100682.00,1.9232007,-9.893676,-0.70683014
1421716100702.00,1.6232245,-9.832603,-0.9057664
1421716100722.00,0.4779561,-9.489816,-1.2618759
1421716100746.00,-0.54322034,-8.954529,-1.6277151
1421716100762.00,-1.3486954,-9.298214,-1.1515553
1421716100784.00,-1.4895525,-8.93462,-0.6700067
1421716100806.00,-0.6780899,-8.933573,-0.8532257
1421716100822.00,0.2944377,-9.724677,-1.6687299
1421716100845.00,0.5701643,-9.677376,-0.71162015
1421716100863.00,0.15582596,-8.048313,0.84858537
1421716100909.00,0.6908134,-8.417147,-0.8879535
1421716100913.00,1.5537689,-9.244177,-2.7649004
1421716100971.00,1.2440629,-8.896151,-1.9354751
1421716100972.00,0.73721695,-8.972491,-1.2795392
1421716100973.00,0.94678116,-9.374855,-0.28845015
1421716100982.00,0.592917,-9.797576,0.79005706
1421716101002.00,1.1205697,-10.66622,1.8763481
1421716101022.00,1.6006215,-11.676619,1.9145187
1421716101042.00,0.25432113,-11.437266,0.814606
1421716101062.00,-1.4178516,-11.714789,1.8169217
1421716101082.00,-2.4641757,-12.102483,3.3831148
1421716101105.00,-2.4266038,-13.303735,2.3571482
1421716101127.00,-1.5898439,-14.43134,0.5186714
1421716101144.00,-1.0641371,-14.3749075,-0.3186873
1421716101164.00,-0.87672687,-13.402679,-0.84963316
1421716101182.00,-0.9201366,-11.780353,-1.6224761
1421716101202.00,-0.8680449,-10.961705,-2.1450393
1421716101222.00,-0.6825806,-10.629247,-2.3095472
1421716101242.00,-0.61596906,-10.955269,-2.553989
1421716101331.00,-0.03607498,-11.221564,-2.863695
1421716101332.00,0.49127838,-10.806627,-3.166216
1421716101333.00,0.7180568,-9.977502,-4.4234514
1421716101338.00,-0.29548553,-9.159004,-3.9044807
1421716101345.00,-1.4925462,-8.099657,4.723278
1421716101362.00,-2.9837453,-8.346643,6.9223547
1421716101382.00,-2.138004,-8.4785185,1.1262579
1421716101402.00,-1.2367282,-8.791518,-3.4558635
1421716101425.00,-0.34278718,-9.915231,-1.8776953
1421716101442.00,0.45310774,-11.265424,-1.5370038
1421716101463.00,-0.7110214,-9.746383,-2.2864952
1421716101482.00,-1.7122893,-8.752599,-2.6291327
1421716101502.00,-1.8103354,-8.851094,-2.9672794
1421716101522.00,-1.3013937,-9.168584,-3.5413358
1421716101542.00,-0.7197034,-9.724827,-3.1600785
1421716101561.00,0.07694,-9.8519125,-3.5112484
1421716101616.00,1.155597,-9.576785,-3.9347177
1421716101617.00,1.275797,-8.841064,-3.7047958
1421716101622.00,1.1591895,-8.137977,-3.5949242
1421716101642.00,1.0726694,-7.92003,-4.3930645
1421716101662.00,0.7470964,-7.43459,-4.63092
1421716101690.00,0.09849518,-6.7021627,-4.4318337
1421716101702.00,-0.65773225,-6.264024,-4.5774813
1421716101722.00,-0.97716796,-6.0330544,-4.959636
1421716101768.00,-1.1533515,-6.045179,-5.004543
1421716101770.00,-0.99438214,-5.6890697,-4.900659
1421716101782.00,-0.86834425,-5.089267,-4.8759604
1421716101802.00,-1.4696438,-4.047733,-5.0754952
1421716101822.00,-1.6102016,-3.6857853,-5.65988
1421716101842.00,-1.6108003,-3.5351985,-6.0932293
1421716101862.00,-1.0072554,-3.131937,-6.094277
1421716101883.00,-0.10822494,-3.0867312,-5.9760227
1421716101902.00,0.46493316,-3.4492772,-5.9113574
1421716101922.00,-0.082927555,-4.093837,-6.0546093
1421716101983.00,-0.7113208,-4.3646235,-6.0122476
1421716101984.00,-0.8490344,-4.2616377,-6.373746
1421716101985.00,-1.0710227,-5.5274057,-8.633746
1421716102008.00,-1.1103909,-10.5410795,-12.186309
1421716102022.00,-0.84514254,-10.384655,-10.760972
1421716102042.00,-0.51912045,-5.3510723,-7.146888
1421716102062.00,-0.8038284,-4.5806246,-5.7954984
1421716102082.00,-1.7992585,-5.204228,-6.25145
1421716102102.00,-2.8970754,-6.5605574,-7.045698
1421716102122.00,-1.9353255,-8.564739,-7.39118
1421716102154.00,-2.4809408,-8.902587,-5.8616605
1421716102162.00,-2.7894492,-8.894354,-6.503376
1421716102214.00,-3.0130842,-8.669372,-6.4325733
1421716102216.00,-3.6362383,-8.974587,-5.8963885
1421716102222.00,-3.6423757,-9.29043,-5.691165
1421716102295.00,-3.8300853,-9.264983,-5.320835
1421716102296.00,-3.5167868,-9.388327,-4.412225
1421716102297.00,-2.4385788,-9.35345,-3.2771351
1421716102303.00,-1.2319381,-9.308094,-2.6086254
1421716102322.00,-0.6759943,-9.251212,-2.3683748
1421716102342.00,-0.34338593,-9.182954,-1.9821781
1421716102362.00,0.42137375,-9.443263,-1.4389577
1421716102382.00,0.6800358,-9.0060215,-1.4072237
1421716102403.00,0.90307206,-8.65096,-0.5122348
1421716102422.00,0.81310916,-8.516989,-0.17708176
1421716102442.00,0.66132474,-8.672814,0.38260436
1421716102462.00,1.6760646,-9.4805355,1.1045531
1421716102484.00,2.5521927,-10.661579,0.4102968
1421716102502.00,2.9940739,-10.966944,-0.53528684
1421716102524.00,2.5864713,-9.931248,-0.15837067
1421716102542.00,2.3209236,-9.465567,-0.3026706
1421716102612.00,1.9761904,-9.030122,-1.4280304
1421716102613.00,2.1309686,-9.462124,-1.2997471
1421716102613.00,2.1480331,-9.841884,-0.78601545
1421716102658.00,1.0711725,-9.605824,-1.1250604
1421716102659.00,-0.066162415,-9.080566,-1.1976595
1421716102662.00,-0.37601808,-9.527088,-0.9834549
1421716102682.00,-0.32467484,-10.107881,-0.8159532
1421716102702.00,-0.9520203,-9.180709,-0.11047027
1421716102722.00,-1.5404466,-8.710985,-0.36284545
1421716102742.00,-0.3968248,-9.054371,-0.43903702
1421716102762.00,1.1931688,-9.259595,0.24279511
1421716102782.00,1.2587324,-8.882828,-0.6369255
1421716102802.00,1.121468,-8.775052,-1.7577946
1421716102825.00,1.0654843,-8.941357,-1.2314891
1421716102842.00,0.5965096,-9.288784,-0.5167255
1421716102862.00,0.3686833,-9.385932,0.644859
1421716102882.00,0.3025209,-10.008338,1.6238233
1421716102947.00,1.094973,-11.121722,2.8116033
1421716102948.00,1.4236894,-11.388767,2.7457402
1421716102949.00,0.24294479,-11.21408,0.80727124
1421716102962.00,-1.207988,-11.942915,0.62225604
1421716102982.00,-1.7175283,-13.1283,1.8994002
1421716103009.00,-1.5173945,-13.817167,1.506617
1421716103022.00,-1.5331119,-14.408587,0.21510269
1421716103078.00,-1.6224761,-13.946947,-0.39981857
1421716103083.00,-1.3064831,-12.44063,-1.6116985
1421716103084.00,-0.9994716,-11.707455,-2.934797
1421716103102.00,-0.88600755,-12.19484,-3.900888
1421716103122.00,0.02814148,-12.628339,-4.668492
1421716103142.00,1.1557466,-12.4088955,-6.1911254
1421716103162.00,1.0639874,-12.290492,-6.7803
1421716103182.00,0.22543122,-11.511362,-0.15867004
1421716103202.00,-1.4660513,-11.324101,9.394764
1421716103277.00,-2.2454805,-11.254795,4.031716
1421716103278.00,-3.2033386,-9.190887,-0.08187973
1421716103278.00,-2.013912,-9.341025,-0.531844
1421716103285.00,-0.063767396,-10.516082,-1.1648777
1421716103303.00,1.0946736,-10.816058,-2.6673033
1421716103322.00,0.09475296,-8.880882,-3.1274464
1421716103342.00,-1.5819104,-8.294552,-2.0007393
1421716103362.00,-2.358196,-7.8841047,-1.9077828
1421716103382.00,-1.7525555,-7.843689,-2.1757255
1421716103402.00,-1.0686278,-7.8082128,-2.1528232
1421716103423.00,-0.6978488,-7.044501,-2.6914032
1421716103442.00,-1.271456,-6.435268,-2.8473787
1421716103462.00,-1.6866925,-5.9224343,-2.9774582
1421716103482.00,-1.9215541,-5.4254675,-3.8803806
1421716103545.00,-1.5853533,-4.613406,-4.0939865
1421716103546.00,-1.359473,-3.4789155,-3.9775286
1421716103550.00,-1.520538,-2.8325596,-4.5689487
1421716103606.00,-1.7408798,-2.3611898,-4.7315106
1421716103607.00,-1.619183,-2.6894572,-4.667145
1421716103608.00,-1.2228072,-3.3697925,-5.6615267
1421716103622.00,-0.6089337,-3.9401064,-6.377638
1421716103642.00,-0.09175918,-4.2578955,-6.4080243
1421716103662.00,-0.39487883,-4.085903,-5.917345
1421716103682.00,-1.069975,-4.0796165,-6.430328
1421716103702.00,-1.1535013,-4.897366,-8.376132
1421716103722.00,-1.0211765,-8.813073,-11.004665
1421716103742.00,-1.3163626,-11.17606,-10.721305
1421716103762.00,-1.6482224,-9.809252,-6.9870205
1421716103782.00,-1.8959574,-6.946754,-4.369414
1421716103804.00,-3.5203793,-5.63608,-4.601132
1421716103822.00,-2.1176462,-7.432644,-7.0970416
1421716103842.00,-2.1347108,-9.73815,-6.148464
1421716103909.00,-3.1407688,-11.019934,-5.513634
1421716103909.00,-2.822231,-10.661429,-5.4551063
1421716103910.00,-2.393822,-9.93484,-4.4267445
1421716103929.00,-1.9733464,-9.311088,-3.2668066
1421716103959.00,-2.0766315,-9.042546,-2.7854078
1421716103963.00,-1.5664924,-9.110804,-2.603985
1421716103982.00,-1.5567627,-9.35315,-2.108216
1421716104002.00,-1.0142908,-9.375454,-1.679208
1421716104022.00,-0.28246263,-9.107361,-0.848286
1421716104042.00,0.0796344,-8.814271,-0.25926086
1421716104062.00,0.542921,-8.854836,0.44532394
1421716104082.00,1.0578502,-9.688004,0.7012917
1421716104106.00,1.3516891,-10.64691,0.4701723
1421716104122.00,1.4259348,-10.95482,-0.44771898
1421716104145.00,1.025218,-9.6725855,-1.1641291
1421716104162.00,0.79320055,-9.012309,-1.9934047
1421716104233.00,1.2865746,-9.253607,-1.6130457
1421716104233.00,2.0356169,-9.390573,-1.0701246
1421716104234.00,2.413581,-9.392668,-0.85756665
1421716104242.00,1.6880397,-9.439969,-1.4811699
1421716104264.00,0.5815407,-8.97833,-1.4941928
1421716104282.00,-0.054486696,-9.836644,-1.1793975
1421716104302.00,-0.7189549,-9.936787,-0.8228389
1421716104329.00,-1.2051439,-8.959619,-1.3289365
1421716104342.00,0.034428407,-9.48802,-1.4560221
1421716104400.00,0.10103989,-9.074879,-0.014968872
1421716104402.00,-0.5366341,-8.289762,-0.06301895
1421716104404.00,0.37871248,-8.760682,-1.4088702
1421716104422.00,0.6207591,-9.177266,-0.40131545
1421716104445.00,0.85756665,-9.153166,-0.67075515
1421716104463.00,1.438808,-8.830437,-1.2570859
1421716104482.00,1.3632152,-9.009764,-1.2567865
1421716104502.00,0.988694,-9.486672,-0.4046086
1421716104576.00,1.1650273,-10.729837,1.121468
1421716104578.00,1.3066329,-11.350447,0.96145064
1421716104579.00,-0.32946488,-11.655064,1.7182769
1421716104586.00,-2.4471111,-11.874657,3.7812867
1421716104604.00,-3.1942077,-13.000465,3.4670901
1421716104622.00,-2.8865974,-14.355897,1.8218614
1421716104642.00,-2.5009992,-14.433585,0.7312294
1421716104662.00,-1.9142194,-14.168786,-0.27363098
1421716104682.00,-1.345552,-13.040881,-1.1087444
1421716104702.00,-0.52795213,-11.904445,-1.6245717
1421716104722.00,-0.11780503,-11.570189,-2.283651
1421716104742.00,0.28725266,-11.676319,-3.1335838
1421716104766.00,0.82972455,-12.100238,-3.761977
1421716104782.00,1.109343,-11.373649,-4.5708947
1421716104831.00,1.2118798,-11.360476,-5.3600535
1421716104833.00,1.4220428,-12.469819,-3.576812
1421716104842.00,0.51268387,-9.722432,8.788973
1421716104899.00,-2.0428019,-8.766071,9.936787
1421716104901.00,-3.3057258,-9.081465,5.981112
1421716104902.00,-3.272345,-9.434581,2.6816735
1421716104922.00,-1.3448035,-10.206077,-9.453591
1421716104942.00,2.0046313,-11.221265,-5.473368
1421716104962.00,0.4736151,-8.402627,-0.4682263
1421716104982.00,-0.9710307,-7.178323,1.6919316
1421716105002.00,-1.1535013,-6.913523,-0.060923308
1421716105022.00,-1.2382251,-6.670728,-0.5866301
1421716105042.00,-0.6638695,-6.011349,-0.5261558
1421716105062.00,-0.4472699,-5.4893847,-0.5192702
1421716105082.00,-0.63752425,-5.18881,0.09669891
1421716105102.00,-1.1448194,-4.7599516,0.29219237
1421716105122.00,-1.7274078,-4.722829,-0.2547702
1421716105142.00,-2.3492148,-4.3171725,-0.56148237
1421716105162.00,-2.7327173,-4.6725335,-0.9607022
1421716105228.00,-2.1547692,-4.777914,-1.8967057
1421716105234.00,-0.7843689,-5.5250106,-3.9683976
1421716105235.00,0.34997222,-6.9859724,-5.999674
1421716105291.00,2.538122,-10.770253,-7.8582087
1421716105293.00,3.2169602,-14.061608,-7.9436812
1421716105294.00,1.3641133,-14.437327,-6.193371
1421716105302.00,-1.7077986,-11.764036,-5.0337324
1421716105323.00,-4.36148,-9.768836,-2.6569748
1421716105343.00,-4.9229627,-12.196637,-3.665278
1421716105362.00,-0.558788,-18.145866,-8.020022
1421716105383.00,4.4643164,-13.463752,-0.76910067
1421716105403.00,-1.2915143,-3.2133677,5.633385
1421716105423.00,-5.676196,-2.467918,6.278693
1421716105442.00,-6.6199837,-5.0201106,5.1819243
1421716105463.00,-4.1617956,-8.540191,2.6680517
1421716105483.00,-0.2189946,-14.015505,1.830693
1421716105543.00,4.201463,-15.920893,1.0126442
1421716105544.00,4.7554607,-11.491753,-0.59276736
1421716105545.00,1.839375,-8.805589,-0.5863307
1421716105562.00,-0.014220429,-8.901689,-0.29847932
1421716105582.00,-0.39966887,-8.629704,0.4403842
1421716105602.00,-0.41703278,-9.605675,0.29368928
1421716105622.00,-0.4327501,-10.268197,0.49412248
1421716105642.00,-0.86220706,-10.036479,-0.57510406
1421716105662.00,-0.77044785,-9.471105,-1.4473403
1421716105685.00,-0.2880011,-9.381441,-0.29294083
1421716105702.00,0.40296203,-9.111253,1.5687377
1421716105753.00,0.38395157,-9.039701,1.8510507
1421716105754.00,-0.1366658,-9.092841,0.9906399
1421716105763.00,-0.6089337,-9.485924,0.13816269
1421716105782.00,-1.0937755,-9.655222,0.11555969
1421716105802.00,-1.3230987,-9.61765,0.6423143
1421716105891.00,-1.060844,-9.371861,0.932411
1421716105893.00,-0.41119492,-9.245374,0.8387059
1421716105894.00,0.42796004,-9.110206,0.7445517
1421716105895.00,1.0065069,-9.753568,1.1253598
1421716105902.00,0.89139634,-10.028396,1.1879296
1421716105923.00,0.59007293,-9.933792,-0.09804611
1421716105943.00,0.5278024,-9.962683,-1.7365389
1421716105962.00,0.988694,-10.193952,-1.189726
1421716105982.00,0.5354366,-10.958562,-0.393831
1421716106005.00,0.040266264,-11.804303,-1.3557308
1421716106022.00,1.3224999,-13.571228,-0.64665526
1421716106042.00,2.3478675,-14.467265,1.0571017
1421716106063.00,2.295327,-12.586427,1.5507752
1421716106084.00,0.9608519,-10.67565,-0.32991394
1421716106113.00,-0.34428406,-9.170529,-1.4501843
1421716106122.00,0.06885681,-9.906849,-1.250799
1421716106146.00,1.0985656,-11.141032,2.5815318
1421716106162.00,2.0871098,-12.668756,1.8321899
1421716106268.00,2.3825953,-12.244687,4.0145016
1421716106269.00,0.51028883,-12.129577,4.3159747
1421716106270.00,-1.1235635,-11.663146,1.576821
1421716106271.00,-1.3855188,-10.38256,-0.5090913
1421716106272.00,-1.7506096,-10.390792,0.5908214
1421716106283.00,-1.0144404,-11.208991,2.9707224
1421716106306.00,-1.1832893,-9.378448,0.54322034
1421716106328.00,-1.3236973,-7.9366455,0.49202684
1421716106343.00,-1.5664924,-7.170988,1.1856843
1421716106362.00,-1.5422429,-6.9217563,1.036295
1421716106382.00,-1.359922,-6.50143,1.140179
1421716106403.00,-1.5410454,-6.201604,1.5703844
1421716106423.00,-2.2745202,-6.4199996,1.1879296
1421716106442.00,-2.7942393,-6.033204,-0.040266264
1421716106463.00,-3.3227901,-6.240523,-1.0457253
1421716106482.00,-3.4805622,-6.8341885,-2.0621119
1421716106503.00,-3.3196468,-8.78104,-3.1880703
1421716106572.00,-2.475552,-12.697495,-4.8603926
1421716106574.00,-1.8661693,-14.374309,-5.807473
1421716106575.00,-1.155597,-13.149555,-7.122788
1421716106582.00,-1.1636801,-11.915072,-8.57896
1421716106602.00,-3.0223649,-8.762777,-6.348598
1421716106623.00,-2.1963825,-6.7088985,-1.3458513
1421716106642.00,-1.3841716,-9.012908,-0.5860313
1421716106663.00,0.02215393,-17.58064,-1.648971
1421716106683.00,0.4261638,-12.232263,2.4739056
1421716106703.00,-3.314707,-4.883445,5.6438637
1421716106723.00,-3.7895195,-3.772605,6.2935123
1421716106764.00,-2.9009674,-7.243138,5.592071
1421716106765.00,-0.8214917,-10.269395,3.3718882
1421716106784.00,1.1743081,-12.97906,1.6308587
1421716106846.00,2.181713,-12.527748,0.685724
1421716106847.00,2.377506,-9.904753,-0.40850052
1421716106848.00,0.37571868,-9.228459,-1.4973363
1421716106864.00,-0.796344,-8.988209,-2.0501368
1421716106883.00,-1.7530046,-9.150322,-2.1992266
1421716106903.00,-1.4557228,-10.172546,-0.337099
1421716106923.00,-0.21824616,-10.468631,1.2490027
1421716106943.00,0.52226394,-9.470955,1.237776
1421716106963.00,0.789608,-8.982222,0.57959473
1421716106983.00,0.8202942,-9.138646,0.938698
1421716107003.00,0.09849518,-9.131461,1.2786411
1421716107022.00,-0.4300557,-9.105715,1.2325369
1421716107043.00,-0.37272492,-9.318273,1.2220588
1421716107063.00,-0.38260436,-9.627829,1.3563294
1421716107082.00,-0.45176056,-9.472452,1.5777191
1421716107103.00,-0.6135741,-9.230255,1.8419197
1421716107167.00,-0.41912842,-9.220526,1.3358221
1421716107168.00,-0.16435821,-9.597741,1.0797048
1421716107169.00,-0.021255799,-10.109676,0.60459274
1421716107187.00,0.07723938,-10.112072,-0.09355545
1421716107203.00,0.3213817,-9.850865,-0.99872315
1421716107265.00,0.9144484,-9.553883,-1.2037967
1421716107270.00,1.6455281,-9.683363,-0.22079086
1421716107273.00,1.3906082,-10.5289545,0.25686586
1421716107289.00,0.47166917,-10.897938,-1.0523117
1421716107306.00,0.78212357,-11.714939,-1.968706
1421716107325.00,1.9025437,-13.610597,-0.46283752
1421716107343.00,2.052981,-15.067966,1.4874568
1421716107363.00,0.4951703,-13.614039,0.2201921
1421716107382.00,-1.0779085,-10.929821,-2.8716285
1421716107403.00,-1.7739611,-10.048754,-2.578987
1421716107423.00,-1.1255095,-10.99299,-1.6293617
1421716107442.00,0.16316071,-13.012441,-0.101339266
1421716107500.00,1.7815951,-13.956528,-0.678539
1421716107501.00,1.6242723,-13.027559,2.0935464
1421716107502.00,0.7301816,-13.139377,3.4612522
1421716107523.00,0.35131943,-12.263248,1.4440471
1421716107543.00,-0.050145723,-12.731175,2.6002429
1421716107562.00,-0.15462846,-14.272969,0.138013
1421716107582.00,-0.91100556,-12.325818,-1.9440074
1421716107603.00,-1.3201048,-10.649454,-1.8733543
1421716107622.00,-1.3584251,-9.634266,-2.4716601
1421716107642.00,-1.1232642,-9.232501,-1.3451028
1421716107681.00,-0.67210233,-9.451645,-1.0041119
1421716107683.00,-0.30491593,-9.639954,-1.194516
1421716107740.00,-0.3571573,-9.053923,-1.2395723
1421716107743.00,-1.3784834,-7.522008,-2.17842
1421716107745.00,-2.4387286,-5.6595807,-2.712659
1421716107763.00,-2.545756,-3.8425095,-3.233875
1421716107831.00,-2.1136048,-2.388583,-3.5738182
1421716107832.00,-1.4714401,-2.0776794,-3.3441956
1421716107833.00,-1.3962964,-2.657873,-3.7886214
1421716107842.00,-2.1052222,-3.237318,-4.384981
1421716107863.00,-2.467918,-3.5443296,-5.0454082
1421716107883.00,-2.903063,-4.1367974,-5.094955
1421716107903.00,-3.2633638,-4.3987527,-4.758455
1421716107923.00,-3.7516484,-4.1730223,-5.197192
1421716107943.00,-4.0746765,-5.7410116,-8.16028
1421716107962.00,-3.3938923,-11.794573,-10.873837
1421716107982.00,-2.5710535,-13.223501,-8.689879
1421716108003.00,-2.3055058,-9.128917,-5.12609
1421716108023.00,-3.7028499,-6.4806232,-3.8324804
1421716108043.00,-4.221072,-5.9972787,-5.265151
1421716108062.00,-3.060835,-8.775651,-5.6984997
1421716108082.00,-3.855233,-11.31078,-4.423751
1421716108153.00,-3.3385077,-12.077485,-4.566105
1421716108158.00,-2.2641916,-10.823393,-3.7555404
1421716108163.00,-1.6851956,-9.425449,-2.7653494
1421716108166.00,-0.95695996,-8.831335,-1.7844392
1421716108227.00,-0.05867798,-8.986114,-1.1707155
1421716108230.00,0.44502458,-9.722732,-0.6328839
1421716108231.00,0.62300444,-9.943223,-0.4204756
1421716108243.00,0.77838135,-9.425899,-0.8409512
1421716108263.00,0.7273375,-8.908276,-1.0352472
1421716108283.00,0.2920427,-7.9435315,-0.66791105
1421716108303.00,0.2402504,-8.248148,-0.6027965
1421716108323.00,1.0244696,-8.944799,0.15597564
1421716108343.00,1.6254698,-10.306667,-0.3248245
1421716108363.00,1.7636325,-10.901231,-0.7345226
1421716108383.00,1.4557228,-10.179881,-1.7233663
1421716108403.00,0.7746391,-9.200019,-1.7768052
1421716108423.00,0.7964937,-9.79084,-1.9989432
1421716108486.00,0.96938413,-10.227182,-2.2703288
1421716108487.00,1.1337423,-9.954599,-1.379681
1421716108488.00,1.2783417,-9.793684,-0.6116281
1421716108502.00,0.597258,-9.693842,-0.6547385
1421716108523.00,-0.27138564,-9.369915,0.123044126
1421716108543.00,-1.2678635,-8.632848,0.583786
1421716108563.00,-1.1787987,-8.8774395,0.24938141
1421716108583.00,-0.75458086,-9.585766,-0.94708055
1421716108605.00,0.2243834,-9.643396,-0.21480331
1421716108627.00,1.0761123,-9.464219,0.30581406
1421716108643.00,1.522933,-9.298364,0.14130615
1421716108712.00,1.3980926,-9.059011,0.06975494
1421716108714.00,0.8972342,-8.549621,-0.062420197
1421716108715.00,0.32452515,-8.979976,-0.37197646
1421716108723.00,0.103584595,-9.864636,-0.7152127
1421716108743.00,0.06436615,-9.866732,0.42017624
1421716108807.00,-0.17543519,-10.004296,0.82807803
1421716108808.00,0.18516494,-10.598411,1.6567547
1421716108809.00,1.3443544,-12.033925,2.955005
1421716108826.00,2.3040087,-13.475428,3.9652543
1421716108843.00,0.5769003,-14.303057,1.4805712
1421716108863.00,-1.1385324,-14.938335,0.46807662
1421716108889.00,-1.4175522,-14.025683,0.34323624
1421716108903.00,-1.137335,-12.754078,-0.4459227
1421716108925.00,-0.7220984,-12.1909485,-1.0202783
1421716108947.00,-0.032632142,-11.931239,-1.4620098
1421716108963.00,0.53648436,-12.477453,-2.289938
1421716108983.00,1.069975,-12.432247,-3.5850449
1421716109003.00,1.6253201,-11.4255905,-6.0492206
1421716109023.00,2.0838168,-12.576397,-7.4485106
1421716109043.00,1.49075,-12.552148,1.0647359
1421716109063.00,0.7614665,-12.669952,5.487738
1421716109121.00,2.99E-04,-11.543395,4.141737
1421716109122.00,-1.3130695,-10.953472,6.011499
1421716109129.00,-0.9448352,-10.135424,2.715503
1421716109145.00,-0.1911525,-9.9644785,-2.3378384
1421716109192.00,0.8623567,-9.744436,-4.8207254
1421716109195.00,0.16989669,-9.2432785,-3.1687605
1421716109203.00,-0.93630296,-7.6155634,-1.4997313
1421716109223.00,-1.6447797,-7.2588553,-0.4484674
1421716109243.00,-1.5629,-7.490274,-1.0895842
1421716109263.00,-1.1753558,-7.635322,-2.1600082
1421716109283.00,-1.0533595,-6.9244504,-0.9912387
1421716109303.00,-1.5191908,-6.0375447,-1.4081218
1421716109323.00,-2.1010308,-5.141059,-2.6632617
1421716109343.00,-2.1604574,-4.9457154,-3.5260675
1421716109363.00,-1.5983762,-3.9383101,-3.7351828
1421716109383.00,-1.2496015,-2.829566,-4.5268865
1421716109452.00,-1.2385244,-2.8490255,-5.0313373
1421716109453.00,-0.775687,-3.1424153,-4.82821
1421716109454.00,-0.07080276,-3.0376332,-5.960156
1421716109466.00,0.80337936,-3.207979,-6.6110024
1421716109482.00,0.567919,-3.2219,-6.8945127
1421716109503.00,-2.15432,-3.9426513,-9.315429
1421716109523.00,-4.089795,-8.415649,-10.223141
1421716109542.00,-2.8942313,-12.898228,-7.6103244
1421716109563.00,-2.424508,-10.570568,-3.5366955
1421716109583.00,-2.3680756,-7.6550813,-4.8672786
1421716109603.00,-2.009571,-7.4645276,-5.1159115
1421716109623.00,-3.3211436,-9.845776,-4.2176294
1421716109676.00,-4.21269,-11.467354,-4.411626
1421716109678.00,-2.8401937,-11.0843,-4.367318
1421716109684.00,-1.9296373,-9.85326,-3.1388228
1421716109703.00,-1.4302757,-9.305399,-2.223626
1421716109723.00,-0.99468154,-9.388626,-1.7027092
1421716109782.00,-0.15627502,-9.923314,-1.0562036
1421716109783.00,0.88720506,-10.250684,-0.66177386
1421716109784.00,1.036295,-10.203681,-0.38140687
1421716109803.00,0.9159453,-9.7514715,-0.11136841
1421716109823.00,0.6914122,-9.683662,0.13726455
1421716109843.00,0.669857,-9.544153,0.1992357
1421716109863.00,0.84364563,-9.703272,-0.064815216
1421716109883.00,1.1249107,-10.073153,0.13157639
1421716109903.00,1.2918136,-9.386681,-0.69485503
1421716109923.00,1.5685881,-8.975784,-0.8547226
1421716109943.00,1.8034497,-9.108708,-0.8333171
1421716109963.00,1.9746937,-9.050928,-0.9663904
1421716109984.00,1.84656,-9.78605,-1.7619859
1421716110003.00,0.78242296,-9.283844,-2.02454
1421716110023.00,0.1445993,-9.344618,-1.787433
1421716110043.00,-0.33919466,-9.620194,-1.3082794
1421716110104.00,-0.015118561,-9.042397,-0.3251239
1421716110105.00,0.47451323,-8.960367,0.2585124
1421716110106.00,0.22138962,-9.108858,-0.88690567
1421716110168.00,0.43439665,-9.126371,-0.832419
1421716110170.00,1.0196795,-9.027877,-0.7262897
1421716110171.00,0.9273216,-9.3663225,-1.5413448
1421716110184.00,0.658331,-9.082513,-0.9574091
1421716110203.00,0.5737569,-8.946595,-1.0807526
1421716110225.00,0.651595,-9.251512,-1.4858103
1421716110245.00,0.6604266,-9.38219,-0.027393036
1421716110263.00,0.07349716,-9.28624,1.3269905
1421716110285.00,0.59276736,-10.023007,1.5844551
1421716110303.00,1.701362,-11.476484,2.9133916
1421716110324.00,1.581162,-12.256063,2.7611582
1421716110343.00,-0.2745291,-12.143048,0.7509883
1421716110363.00,-1.192121,-13.821658,1.3542339
1421716110383.00,-0.89543796,-15.1749935,2.0457957
1421716110441.00,-0.4290079,-14.896422,-0.39697447
1421716110442.00,-0.41942778,-14.555881,-1.7410295
1421716110443.00,-0.3677852,-13.615237,-1.7637821
1421716110470.00,-0.44771898,-12.723841,-2.504442
1421716110483.00,-0.6474037,-12.047098,-3.104993
1421716110503.00,-0.48768586,-12.133618,-3.7417688
1421716110523.00,-0.42571473,-12.153227,-5.0048423
1421716110549.00,0.83152086,-12.000694,-6.3815293
1421716110563.00,2.0609143,-13.374537,-2.2659879
1421716110613.00,0.4008664,-13.011842,2.9815
1421716110614.00,-4.066294,-11.8778,2.5113277
1421716110623.00,-4.872368,-10.915152,2.906356
1421716110643.00,-3.0639784,-10.22329,2.6719437
1421716110663.00,-0.30626312,-10.270443,-0.22647904
1421716110683.00,1.2030482,-10.441088,-5.3760705
1421716110743.00,0.0981958,-8.486452,-2.3541546
1421716110744.00,-1.1431727,-7.3676786,-0.99453187
1421716110745.00,-1.2467574,-7.2563105,-0.7339238
1421716110763.00,-0.7222481,-7.0103717,-0.22887406
1421716110784.00,-0.47136977,-5.9546175,-1.4781761
1421716110803.00,-1.0163864,-4.407734,-2.1968317
1421716110823.00,-1.9935544,-3.5747163,-2.2059627
1421716110843.00,-2.4855812,-3.2780333,-2.4441175
1421716110863.00,-2.3873854,-2.3975642,-3.0331426
1421716110883.00,-2.2623954,-1.3939013,-5.0828304
1421716110903.00,-1.9838246,-1.1138338,-5.480553
1421716110923.00,-0.9783655,-1.5332615,-4.61161
1421716110943.00,1.0476713,-2.152973,-5.282515
1421716110963.00,1.5602056,-2.05822,-6.4426026
1421716110983.00,-0.5999524,-3.494034,-10.991643
1421716111021.00,-2.8990214,-9.52185,-11.513757
1421716111022.00,-3.1534922,-15.472874,-8.003257
1421716111122.00,-3.1518457,-12.333153,-2.5851243
1421716111123.00,-4.1361985,-7.2775664,-4.323459
1421716111132.00,-2.5340803,-5.560487,-5.9094114
1421716111133.00,-3.413801,-8.528964,-4.2352924
1421716111134.00,-3.7925134,-11.758798,-4.4191103
1421716111143.00,-2.4267535,-11.981235,-4.579876
1421716111163.00,-1.8673668,-10.219848,-3.5467246
1421716111183.00,-2.0854633,-8.881032,-2.5069866
1421716111204.00,-2.0878582,-8.541687,-2.3276596
1421716111223.00,-1.1168275,-9.001681,-1.6151413
1421716111243.00,0.065863036,-9.972262,-1.0095007
1421716111263.00,0.58303756,-10.428813,-0.8370593
1421716111283.00,0.4152365,-9.664352,-0.58079225
1421716111303.00,0.5402266,-9.431138,0.44697052
1421716111323.00,0.47765672,-9.956245,0.48199767
1421716111343.00,0.6056406,-9.688752,0.29922774
1421716111399.00,0.9812096,-9.701326,-0.22138962
1421716111400.00,1.1470647,-9.517808,-0.7388635
1421716111408.00,1.131497,-9.173224,-1.0259665
1421716111425.00,1.4256353,-8.746013,-1.3608202
1421716111443.00,1.4400055,-9.1009245,-1.6097525
1421716111463.00,1.4153068,-9.443413,-1.8420694
1421716111483.00,0.966091,-9.861194,-1.5075151
1421716111508.00,0.21555176,-9.284742,-1.2247531
1421716111523.00,-0.015567627,-9.250314,-0.90846086
1421716111598.00,-0.22273682,-9.462422,-0.6499484
1421716111600.00,-0.11032059,-9.276509,-0.06780899
1421716111602.00,0.21061203,-8.958421,-0.40595582
1421716111603.00,1.2207115,-9.35764,-2.0323238
1421716111624.00,1.8856288,-9.606873,-0.62569886
1421716111643.00,0.7529343,-8.856932,0.17528549
1421716111663.00,0.52570677,-8.921148,-0.62420195
1421716111739.00,0.6180647,-9.482182,-0.67644334
1421716111740.00,0.42107436,-9.118138,-0.6294411
1421716111741.00,0.30222154,-9.365125,-0.5797444
1421716111748.00,-0.008232879,-9.821227,0.17333955
1421716111763.00,-0.044756927,-10.158325,1.5971787
1421716111783.00,1.1431727,-10.484946,3.4337096
1421716111803.00,1.6880397,-10.572814,3.4408946
1421716111829.00,0.8734337,-11.243568,0.88061875
1421716111843.00,0.17259109,-13.09956,0.6553372
1421716111863.00,-0.19279908,-14.234499,2.1429436
1421716111883.00,-0.8012837,-14.581328,1.6069084
1421716111903.00,-1.4870077,-14.459781,0.005388794
1421716111923.00,-1.5057188,-13.627213,-0.9497749
1421716111943.00,-0.8836125,-12.4386835,-1.5120058
1421716111963.00,-0.3984714,-12.006233,-1.8224602
1421716111983.00,-0.09654923,-12.842993,-2.0595672
1421716112003.00,0.2201921,-13.305232,-3.1350806
1421716112131.00,0.67644334,-12.936249,-5.953869
1421716112132.00,1.5197896,-13.76268,-5.8746834
1421716112133.00,0.13576767,-13.376932,2.7369087
1421716112138.00,-0.19669098,-13.723612,2.2326074
1421716112139.00,-2.387086,-11.357482,3.1548395
1421716112142.00,-2.3722668,-11.15645,5.4220247
1421716112145.00,-1.0943742,-10.299333,0.49472123
1421716112163.00,0.46927413,-9.636361,-2.2010229
1421716112183.00,1.2046949,-8.894504,-2.9114456
1421716112204.00,0.2586621,-7.755073,-1.1261083
1421716112223.00,-0.64830184,-6.7235684,-0.047601014
1421716112243.00,-0.80367875,-6.27555,0.5906717
1421716112263.00,-0.9262738,-5.599406,-0.33081207
1421716112286.00,-1.50512,-5.1494417,-0.9979747
1421716112305.00,-2.14953,-4.187542,-1.8047969
1421716112532.00,-2.9244685,-3.5718722,-2.70248
1421716112533.00,-2.872377,-3.020868,-3.4774187
1421716112534.00,-2.8139982,-2.9825478,-4.2766066
1421716112535.00,-2.7378068,-3.2148647,-4.7865963
1421716112536.00,-1.5293697,-2.9936247,-3.926934
1421716112537.00,-0.52061737,-2.8142977,-4.4324327
1421716112538.00,0.08981323,-3.29405,-5.546566
1421716112539.00,0.305365,-3.8472996,-6.7105455
1421716112540.00,-0.5213658,-3.8055363,-9.979597
1421716112541.00,-2.101929,-6.457422,-12.182865
1421716112542.00,-3.012785,-9.996962,-9.216484
1421716112543.00,-1.5142511,-11.734847,-5.2886524
1421716112589.00,-2.2430854,-8.924441,-3.5558555
1421716112590.00,-1.7140856,-7.103628,-5.6799383
1421716112650.00,-1.2513977,-8.404273,-5.401667
1421716112651.00,-3.216062,-10.872191,-5.0356784
1421716112652.00,-3.4404457,-11.514356,-5.417235
1421716112668.00,-2.6605673,-10.673554,-4.687203
1421716112722.00,-2.147584,-9.110654,-3.1111305
1421716112723.00,-1.8899698,-8.446186,-2.0082238
1421716112724.00,-0.9584569,-9.189091,-1.7224681
1421716112750.00,-0.14415024,-9.67064,-1.6208295
1421716112763.00,0.43215135,-10.024504,-1.4395565
1421716112783.00,0.30865815,-9.933494,-0.80053526
1421716112803.00,0.21719833,-9.55014,-0.26539811
1421716112823.00,0.3489244,-9.608968,0.9909393
1421716112844.00,0.6828799,-9.812545,1.4621594
1421716112863.00,1.8088385,-10.397827,1.2370276
1421716112934.00,2.2402413,-10.499616,0.1579216
1421716112935.00,1.5185921,-10.26236,-0.66596514
1421716112936.00,1.1264076,-9.485774,-1.2537928
1421716112943.00,0.9235794,-8.452772,-1.2883708
1421716112964.00,0.941542,-8.416099,-0.9883946
1421716112983.00,1.1121871,-8.408464,-0.8659493
1421716113057.00,1.2108321,-8.662187,-0.9219328
1421716113058.00,0.837209,-9.309141,-0.88451064
1421716113059.00,0.5096901,-10.0030985,-0.55265075
1421716113066.00,0.18262024,-9.720187,-0.23456222
1421716113083.00,-0.008681946,-9.648636,-0.40236327
1421716113103.00,0.10178833,-9.389824,-1.0285112
1421716113123.00,-0.32976425,-8.8722,-0.4098477
1421716113143.00,-0.4376898,-9.035361,-0.024249572
1421716113165.00,0.3848497,-9.494606,-0.9153465
1421716113183.00,1.298849,-9.585467,-1.0333012
1421716113203.00,1.4066249,-9.142089,0.069455564
1421716113223.00,1.0577005,-9.151968,-0.20731887
1421716113244.00,0.585732,-9.821675,-0.78885955
1421716113263.00,1.603765,-10.817554,0.86160827
1421716113283.00,1.5745757,-11.467054,1.3289365
1421716113303.00,0.21659958,-12.058624,1.1731105
1421716113455.00,-0.4087999,-13.316608,2.9620404
1421716113457.00,-1.0623409,-15.524816,2.4575894
1421716113458.00,-1.2301419,-15.421531,0.20477417
1421716113458.00,-1.0556048,-14.657519,-0.5815407
1421716113460.00,-0.9865984,-14.056969,-1.090632
1421716113468.00,-0.93615323,-12.924723,-1.8887722
1421716113470.00,-0.67614394,-12.261303,-3.0243108
1421716113471.00,-0.4007167,-12.694951,-4.4002495
1421716113486.00,-0.056732025,-12.806768,-6.1851377
1421716113508.00,-0.23441254,-13.61374,-6.5749273
1421716113523.00,1.3656102,-14.842385,-0.85367477
1421716113543.00,-1.6208295,-14.183755,3.894601
1421716113563.00,-4.75591,-11.727363,4.278403
1421716113583.00,-3.7462597,-10.6276,2.3123913
1421716113604.00,-1.823508,-10.713072,0.9809102
1421716113682.00,0.99213684,-11.397748,-2.5331821
1421716113683.00,1.2963043,-8.985964,-2.3941214
1421716113684.00,0.443378,-7.1780233,-0.2257306
1421716113685.00,-0.12783417,-6.532266,0.014968872
1421716113703.00,-0.701591,-6.36222,-0.11361374
1421716113723.00,-1.2946577,-5.232968,-0.8931926
1421716113743.00,-1.6384927,-4.3406734,-2.1342618
1421716113763.00,-2.0983365,-3.369493,-2.4225624
1421716113784.00,-2.9270132,-2.4876769,-2.2676344
1421716113803.00,-2.8913872,-1.7747095,-2.9777577
1421716113823.00,-2.6906548,-2.1528232,-4.3333387
1421716113844.00,-3.4293685,-2.6098228,-4.8990126
1421716113863.00,-2.9129424,-2.3828948,-3.9142103
1421716113884.00,-1.1452684,-2.0707939,-4.829557
1421716113947.00,0.37571868,-2.1454885,-6.825506
1421716113949.00,0.83062273,-3.1590307,-12.616962
1421716113951.00,-0.8785231,-5.0980983,-13.122611
1421716114006.00,-3.3965867,-6.243666,-6.143225
1421716114007.00,-5.8886046,-9.278605,-2.1900957
1421716114008.00,-6.545289,-10.583292,-5.796995
1421716114030.00,-2.203867,-9.633368,-6.2447143
1421716114043.00,-3.0241613,-9.578581,-4.9979568
1421716114064.00,-4.0983276,-10.659634,-4.9023056
1421716114084.00,-3.294948,-10.427765,-5.250931
1421716114103.00,-2.427951,-9.837393,-4.5581713
1421716114123.00,-1.6893868,-9.270073,-3.656147
1421716114143.00,-1.2355307,-8.864566,-3.0331426
1421716114163.00,-0.54097503,-8.8879175,-2.642904
1421716114183.00,0.07229965,-8.949589,-2.5206084
1421716114203.00,0.642464,-8.868158,-1.9847227
1421716114223.00,0.71700895,-8.523874,-1.8297949
1421716114243.00,0.44637176,-8.268207,-1.434916
1421716114328.00,0.48768586,-8.093519,-0.8596623
1421716114329.00,1.1039543,-8.508905,-0.39517823
1421716114330.00,1.7399817,-8.878487,-0.4290079
1421716114331.00,1.9446062,-9.834699,-0.7366182
1421716114343.00,1.6627423,-10.59377,-1.0951227
1421716114364.00,0.8744815,-10.1929035,-1.7417779
1421716114384.00,0.4300557,-9.202863,-1.1958632
1421716114440.00,0.049996033,-8.918754,-1.497486
1421716114442.00,0.20686981,-9.095835,-1.3115726
1421716114443.00,0.22677842,-8.959169,-1.0050101
1421716114463.00,0.64411056,-8.990903,-0.19863693
