time_milisec,ax,ay,az
1421631090428.00,-0.50265473,4.8368917,8.740923
1421631090443.00,-0.54501665,4.949308,8.715326
1421631090462.00,-0.49861312,5.0078363,8.748407
1421631090482.00,-0.47436357,4.9442186,8.737929
1421631090505.00,-0.33500335,4.839885,8.565488
1421631090524.00,-0.5107379,4.995861,8.674461
1421631090542.00,-0.52885026,5.0635204,8.617879
1421631090563.00,-0.515977,5.107828,8.641979
1421631090582.00,-0.398172,5.0998945,8.875343
1421631090603.00,-0.3983217,4.938979,8.724308
1421631090623.00,-0.38305342,4.849615,8.844956
1421631090642.00,-0.43304947,5.049749,8.796158
1421631090662.00,-0.5287006,5.1096244,8.784931
1421631090683.00,-0.5261558,4.995412,8.7576885
1421631090702.00,-0.40296203,4.905,8.754246
1421631090722.00,-0.42317,4.9262557,8.744665
1421631090742.00,-0.5071454,4.970863,8.691825
1421631090765.00,-0.6011499,5.040169,8.760532
1421631090782.00,-0.5348378,4.9988546,8.818761
1421631090802.00,-0.42317,4.850663,8.657547
1421631090822.00,-0.4312532,5.023104,8.460107
1421631090842.00,-0.37452117,5.0621734,8.590037
1421631090862.00,-0.4565506,4.9105387,8.69452
1421631090883.00,-0.40161484,4.7794113,8.72326
1421631090902.00,-0.44487488,4.7940807,8.653356
1421631090923.00,-0.42137375,4.786147,8.683144
1421631090944.00,-0.42646316,4.784201,8.904084
1421631090967.00,-0.46403503,4.9225135,9.04554
1421631091018.00,-0.38724473,5.0033455,8.817115
1421631091019.00,-0.4128415,5.1174083,8.6315
1421631091024.00,-0.5243596,5.0124764,8.622669
1421631091043.00,-0.57480466,5.225783,8.779243
1421631091065.00,-0.407303,4.988826,8.78089
1421631091083.00,-0.36449203,5.032385,8.676706
1421631091103.00,-0.39472917,4.9096403,8.589588
1421631091123.00,-0.43724075,4.9075446,8.567285
1421631091142.00,-0.4670288,4.968468,8.656649
1421631091164.00,-0.6941066,4.8946714,8.860075
1421631091184.00,-0.4391867,4.8111453,8.753647
1421631091203.00,-0.38978943,4.7892904,8.815019
1421631091223.00,-0.50220567,4.8946714,8.622819
1421631091243.00,-0.46403503,4.9124846,8.727451
1421631091263.00,-0.48094985,4.868925,8.786728
1421631091285.00,-0.6581813,4.9918194,8.760682
1421631091302.00,-0.5519023,5.1774335,8.760982
1421631091323.00,-0.5081932,5.080585,8.706644
1421631091344.00,-0.5224136,4.934489,8.655451
1421631091363.00,-0.48873368,4.9166756,8.735535
1421631091384.00,-0.53843033,4.8609915,8.765922
1421631091406.00,-0.5081932,4.968767,8.721912
1421631091422.00,-0.52735335,4.8972163,8.571027
1421631091442.00,-0.35251695,4.9490085,8.597222
1421631091463.00,-0.35595977,4.776567,8.685089
1421631091483.00,-0.37721556,4.8175817,8.697963
1421631091505.00,-0.45969406,4.805607,8.711135
1421631091523.00,-0.5492079,4.8512616,8.854088
1421631091544.00,-0.33679962,4.9817905,8.780741
1421631091562.00,-0.39098695,4.9677196,8.840766
1421631091583.00,-0.45071274,4.93868,8.759335
1421631091602.00,-0.5939648,4.9576902,8.929531
1421631091623.00,-0.5456154,4.8570995,8.850495
1421631091643.00,-0.5864804,5.0078363,8.6401825
1421631091662.00,-0.5287006,5.0868716,8.475375
1421631091682.00,-0.6053412,5.035229,8.529713
1421631091702.00,-0.470771,4.9127836,8.638836
1421631091722.00,-0.47601014,5.0085845,8.696615
1421631091742.00,-0.5492079,5.1515374,8.507559
1421631091762.00,-0.5525011,5.07804,8.505013
1421631091782.00,-0.44008484,5.076843,8.579409
1421631091802.00,-0.30731094,5.0365763,8.639733
1421631091824.00,-0.4046086,4.93374,8.543633
1421631091843.00,-0.44891647,5.067712,8.58839
1421631091862.00,-0.4843927,5.0162187,8.691675
1421631091883.00,-0.3170407,5.0436115,8.656649
1421631091903.00,-0.22528152,4.876709,8.510852
1421631091924.00,-0.29129425,4.894372,8.732989
1421631091942.00,-0.5029541,4.9961605,8.741372
1421631091963.00,-0.42810974,4.9153285,8.523874
1421631091982.00,-0.45310774,5.132976,8.677305
1421631092002.00,-0.49307466,5.1036367,8.704399
1421631092081.00,-0.5072951,5.003196,8.758736
1421631092083.00,-0.43888733,4.9904723,8.6964655
1421631092084.00,-0.47151947,4.9135323,8.707542
1421631092084.00,-0.5769003,4.903353,8.676706
1421631092122.00,-0.33171022,5.1741405,8.878786
1421631092123.00,-0.38589752,5.141658,8.749006
1421631092170.00,-0.42032593,5.0787888,8.642279
1421631092171.00,-0.48768586,5.048252,8.770561
1421631092193.00,-0.41344026,5.032984,8.780441
1421631092202.00,-0.36194733,4.974755,8.83358
1421631092223.00,-0.42032593,4.9311957,8.678653
1421631092242.00,-0.4246669,4.960235,8.640632
1421631092262.00,-0.49052992,4.926555,8.668175
1421631092294.00,-0.49921188,5.032984,8.707992
1421631092303.00,-0.5427713,5.1928515,8.630303
1421631092322.00,-0.508792,5.055437,8.48286
1421631092343.00,-0.5809419,4.973258,8.548424
1421631092363.00,-0.5210664,5.0757947,8.657397
1421631092382.00,-0.5201683,5.0621734,8.693622
1421631092403.00,-0.36793488,5.0739985,8.671468
1421631092471.00,-0.45086244,5.038223,8.678503
1421631092471.00,-0.36703673,4.9759526,8.729547
1421631092472.00,-0.28171417,4.784351,8.740474
1421631092496.00,-0.5204677,4.915628,8.773406
1421631092502.00,-0.6065387,5.0249004,8.59363
1421631092522.00,-0.5465135,5.0440607,8.571177
1421631092542.00,-0.53678375,4.940626,8.511749
1421631092562.00,-0.57944506,4.995262,8.639584
1421631092582.00,-0.68722093,5.1748886,8.659043
1421631092605.00,-0.6686595,5.2241364,8.446635
1421631092623.00,-0.92462724,5.303172,8.424032
1421631092642.00,-0.92402846,5.3988233,8.484956
1421631092667.00,-0.8414003,5.136419,8.514744
1421631092684.00,-0.8403525,5.355114,8.65605
1421631092716.00,-0.8026309,5.235812,8.694819
1421631092723.00,-0.7842192,5.278623,8.7439165
1421631092742.00,-0.67210233,5.0533414,8.789572
1421631092762.00,-0.45744872,5.2124605,8.578811
1421631092782.00,-0.46942383,5.315147,8.494386
1421631092802.00,-0.45714936,5.2480865,8.527018
1421631092822.00,-0.4951703,5.207371,8.483758
1421631092843.00,-0.37541932,5.0172668,8.466694
1421631092863.00,-0.45295808,5.1135163,8.578661
1421631092883.00,-0.5686675,5.2796707,8.544382
1421631092903.00,-0.48873368,5.000352,8.507259
1421631092923.00,-0.4540059,4.950655,8.542436
1421631092950.00,-0.5628296,4.8359933,8.65605
1421631092968.00,-0.44996428,4.8247666,8.770262
1421631092989.00,-0.46882507,4.9912205,8.89136
1421631093002.00,-0.38170624,4.833898,8.806637
1421631093023.00,-0.2643503,4.8168335,8.818611
1421631093042.00,-0.28321105,4.8144383,8.858429
1421631093065.00,-0.26839188,4.907245,8.768915
1421631093083.00,-0.28874955,4.7038183,8.7946615
1421631093102.00,-0.16136444,4.815187,8.860374
1421631093122.00,-0.13067825,4.835395,8.87205
1421631093142.00,-0.21046235,4.7159433,8.826395
1421631093164.00,-0.23156846,4.7327085,8.772358
1421631093185.00,-0.26045838,4.8686256,8.763077
1421631093202.00,-0.3888913,4.9178734,8.800798
1421631093222.00,-0.31539413,4.9063473,8.722062
1421631093242.00,-0.34233811,4.849016,8.781788
1421631093262.00,-0.41224274,4.8377895,8.76652
1421631093282.00,-0.4552034,4.972659,8.9215975
1421631093304.00,-0.4604425,4.795278,7.8447366
1421631093326.00,-1.0057585,5.3914886,8.561746
1421631093342.00,-0.9045689,5.255571,9.030122
1421631093362.00,-0.5423222,4.7827044,8.969797
1421631093393.00,-0.72898406,5.120103,8.917256
1421631093407.00,-0.68048495,5.093009,8.690778
1421631093449.00,-0.57540345,5.09241,8.786129
1421631093451.00,-0.7458989,5.0241523,9.0647
1421631093463.00,-0.3851491,5.0263977,8.809181
1421631093482.00,-0.3607498,4.9496074,8.705148
1421631093504.00,-0.36928207,4.9768505,8.580906
1421631093524.00,-0.4061055,4.8726673,8.818611
1421631093543.00,-0.49427214,4.9600854,8.718919
1421631093562.00,-0.51118696,4.8279104,8.72805
1421631093582.00,-0.5080435,4.997807,8.678204
1421631093602.00,-0.34278718,5.1198034,8.721912
1421631093624.00,-0.5427713,5.017117,8.698562
1421631093643.00,-0.5960605,5.08777,8.519683
1421631093662.00,-0.40011796,5.0531917,8.431816
1421631093682.00,-0.26644593,4.997358,8.4922905
1421631093703.00,-0.33245865,4.9398775,8.5717745
1421631093724.00,-0.38275406,4.7782135,8.675809
1421631093743.00,-0.4701723,4.971911,8.733289
1421631093762.00,-0.5560936,4.9038024,8.796457
1421631093783.00,-0.47690827,5.0576825,8.868158
1421631093802.00,-0.34413436,5.0226555,8.758138
1421631093823.00,-0.4297563,5.085225,8.711884
1421631093844.00,-0.49951127,5.10214,8.67027
1421631093863.00,-0.56342834,5.050198,8.83373
1421631093882.00,-0.53992724,4.952152,8.654253
1421631093922.00,-0.5325925,4.8849416,8.543184
1421631093923.00,-0.6936575,5.0268464,8.69467
1421631093944.00,-0.53783154,5.014722,8.658594
1421631093978.00,-0.5647755,4.982389,8.708141
1421631093982.00,-0.45280838,4.995861,8.704848
1421631094013.00,-0.5005591,4.761598,8.705896
1421631094023.00,-0.6279442,4.8644342,8.846154
1421631094049.00,-0.676593,4.8080015,8.787027
1421631094064.00,-0.55145323,4.9996033,8.594827
1421631094087.00,-0.6095325,4.916376,8.489296
1421631094111.00,-0.64126647,4.940027,8.759335
1421631094131.00,-0.74739575,4.9029045,8.734786
1421631094142.00,-0.77613604,4.9003596,8.769664
1421631094164.00,-0.84349597,5.036127,8.800499
1421631094182.00,-1.1313473,5.1404605,8.538843
1421631094203.00,-1.1478131,5.445077,8.2848215
1421631094222.00,-1.1856843,5.265151,8.871302
1421631094249.00,-1.0204281,5.07819,8.610993
1421631094269.00,-0.9198372,5.2163525,8.461604
1421631094284.00,-0.8785231,5.1482444,8.339757
1421631094302.00,-0.74649763,5.1756372,8.500074
1421631094322.00,-0.6505472,4.916077,8.822055
1421631094343.00,-0.5266049,5.0816326,8.809481
1421631094362.00,-0.4369414,4.902006,8.747509
1421631094385.00,-0.43634263,4.9055986,8.698562
1421631094403.00,-0.5054988,4.902156,8.649464
1421631094423.00,-0.67210233,4.8277607,8.742869
1421631094442.00,-0.5553452,4.8433285,8.794362
1421631094463.00,-0.53334093,4.8572493,8.779094
1421631094483.00,-0.49936157,4.9801435,8.563393
1421631094503.00,-0.41164398,4.9787965,8.520881
1421631094524.00,-0.49681687,5.0946555,8.578062
1421631094542.00,-0.48918274,5.123396,8.662187
1421631094563.00,-0.5842351,5.0989966,8.769215
1421631094582.00,-0.6586304,5.0364265,8.671917
1421631094603.00,-0.6210585,4.9831376,8.58884
1421631094624.00,-0.49472123,4.9722104,8.801098
1421631094643.00,-0.6439609,4.866979,8.777298
1421631094665.00,-0.61686724,4.92416,8.854088
1421631094683.00,-0.68183213,5.0576825,8.761131
1421631094702.00,-0.63078827,5.089566,8.668175
1421631094724.00,-0.6123766,4.924609,8.673264
1421631094744.00,-0.5346881,4.901258,8.650063
1421631094763.00,-0.57540345,4.918921,8.705297
1421631094783.00,-0.5062473,4.875511,8.706196
1421631094804.00,-0.5090913,4.9416738,8.585846
1421631094822.00,-0.56911653,5.0561857,8.579409
1421631094843.00,-0.6860234,4.8883843,8.714428
1421631094863.00,-0.56941587,4.9442186,8.825198
1421631094882.00,-0.560734,5.016668,8.805289
1421631094903.00,-0.4020639,4.9731083,8.758885
1421631094922.00,-0.47690827,4.9328423,8.705747
1421631094945.00,-0.44427612,4.8000684,8.848699
1421631094967.00,-0.4179309,4.9255075,8.893905
1421631094991.00,-0.4936734,4.850214,8.866063
1421631095003.00,-0.49097902,4.831353,8.687485
1421631095022.00,-0.6271957,5.031487,8.651409
1421631095043.00,-0.5348378,4.9961605,8.602012
1421631095065.00,-0.44517425,4.6569657,8.694819
1421631095085.00,-0.44247985,4.915628,8.636889
1421631095103.00,-0.57540345,4.952002,8.53585
1421631095122.00,-0.52855086,4.9702644,8.744366
1421631095142.00,-0.4340973,4.8925757,8.778944
1421631095162.00,-0.5517526,4.760401,8.654852
1421631095184.00,-0.42391846,4.9548464,8.774902
1421631095203.00,-0.45340714,4.9404764,8.673713
1421631095223.00,-0.49846345,4.8653326,8.638237
1421631095243.00,-0.5372328,5.0630713,8.784333
1421631095262.00,-0.5357359,5.0693583,8.648715
1421631095290.00,-0.45864624,4.9780483,8.782087
1421631095304.00,-0.5387297,5.016069,8.819659
1421631095323.00,-0.49008086,4.9985557,8.809481
1421631095343.00,-0.48244676,4.9017067,8.682694
1421631095363.00,-0.54696256,4.9807425,8.773556
1421631095383.00,-0.47930327,5.008285,8.837921
1421631095404.00,-0.52256334,4.9961605,8.701705
1421631095423.00,-0.40371048,4.9975076,8.532107
1421631095443.00,-0.4924759,5.0005016,8.586594
1421631095463.00,-0.357307,4.870272,8.839119
1421631095483.00,-0.49112868,4.887786,8.869356
1421631095505.00,-0.517923,4.849166,8.777596
1421631095523.00,-0.33485368,5.1683025,8.786279
1421631095543.00,-0.49322432,5.0331335,8.676258
1421631095562.00,-0.47571075,4.920867,8.543035
1421631095583.00,-0.43888733,4.90021,8.701256
1421631095603.00,-0.4670288,4.8493156,8.680898
1421631095623.00,-0.3875441,4.9108377,8.820707
1421631095642.00,-0.5511539,5.019063,8.651709
1421631095662.00,-0.5198689,5.1052837,8.689879
1421631095683.00,-0.5062473,5.091662,8.694819
1421631095703.00,-0.63273424,5.1269884,8.709339
1421631095724.00,-0.5574408,5.0563354,8.632698
1421631095747.00,-0.46268785,5.05873,8.6964655
1421631095764.00,-0.646805,4.9464636,8.633746
1421631095786.00,-0.58977354,4.8903303,8.769962
1421631095806.00,-0.51582736,4.8297067,8.702304
1421631095822.00,-0.5275031,4.8142886,8.758736
1421631095843.00,-0.47466293,4.8297067,8.752449
1421631095863.00,-0.55669236,4.935087,8.6771555
1421631095882.00,-0.55160296,5.081333,8.748108
1421631095903.00,-0.4752617,4.8514113,8.729547
1421631095922.00,-0.63932055,4.816085,8.610844
1421631095945.00,-0.6123766,4.9159274,8.681047
1421631095965.00,-0.667462,4.937183,8.698562
1421631095984.00,-0.54890853,4.9774494,8.6523075
1421631096005.00,-0.5031038,4.9063473,8.566835
1421631096024.00,-0.48903304,4.934788,8.633297
1421631096044.00,-0.5417235,4.8654823,8.735235
1421631096064.00,-0.42376876,4.9772997,8.803642
1421631096086.00,-0.4845424,5.0683103,8.756042
1421631096105.00,-0.59127045,4.974605,8.813373
1421631096124.00,-0.65488815,4.983736,9.05048
1421631096150.00,-0.53379,5.0368757,8.781488
1421631096163.00,-0.50235534,5.081333,8.753198
1421631096183.00,-0.52450925,4.8329997,8.659792
1421631096203.00,-0.5736072,4.9943643,8.71847
1421631096223.00,-0.67958677,4.7877936,8.662935
1421631096243.00,-0.728535,4.8758106,8.676706
1421631096262.00,-0.48139894,4.8538065,8.569979
1421631096283.00,-0.4896318,5.023104,8.656199
1421631096302.00,-0.68422717,4.976701,8.762927
1421631096324.00,-0.4459227,4.9645762,8.747659
1421631096343.00,-0.5312453,4.9067965,8.710237
1421631096363.00,-0.66940796,4.863087,8.871302
1421631096383.00,-0.61087966,4.933291,8.828641
1421631096404.00,-0.5825885,4.9924183,8.573122
1421631096424.00,-0.5769003,5.070256,8.621471
1421631096445.00,-0.59351575,4.9011083,8.734786
1421631096464.00,-0.5547464,4.913233,8.677305
1421631096484.00,-0.55235136,4.9147296,8.775202
1421631096504.00,-0.5542973,4.876709,8.806188
1421631096524.00,-0.5427713,4.849016,8.770711
1421631096545.00,-0.5638774,5.0168176,8.70395
1421631096564.00,-0.6385721,4.906946,8.66099
1421631096584.00,-0.4087999,5.0731006,8.673713
1421631096602.00,-0.6056406,5.079986,8.821606
1421631096622.00,-0.54621416,4.9820895,8.636889
1421631096643.00,-0.47181883,4.867877,8.607551
1421631096663.00,-0.7141649,4.821923,8.693921
1421631096683.00,-0.69231033,5.0015492,8.724009
1421631096703.00,-0.69635195,5.271438,8.820707
1421631096723.00,-0.63617706,5.107229,8.749905
1421631096744.00,-0.5707631,4.9946637,8.676856
1421631096763.00,-0.55654263,5.000651,8.601264
1421631096783.00,-0.61372375,4.815935,8.626561
1421631096804.00,-0.60144925,4.9326925,8.6876335
1421631096886.00,-0.7405101,4.9753537,8.80499
1421631096887.00,-0.57660097,4.832102,8.844209
1421631096892.00,-0.61626846,4.9108377,8.6048565
1421631096895.00,-0.6370752,4.9825387,8.771909
1421631096908.00,-0.6089337,5.0307384,8.625064
1421631096948.00,-0.6132747,5.0461564,8.653356
1421631096951.00,-0.726589,5.140909,8.630154
1421631096967.00,-0.64860123,5.086423,8.6506605
1421631097007.00,-0.6813831,4.9931664,8.891809
1421631097008.00,-0.60429335,5.0192127,8.758138
1421631097059.00,-0.5457651,4.844975,8.74736
1421631097060.00,-0.6568341,5.0208592,8.700058
1421631097068.00,-0.53932846,4.945416,8.558003
1421631097089.00,-0.5138814,5.0490007,8.701555
1421631097149.00,-0.49951127,4.918921,8.819659
1421631097152.00,-0.55399793,4.8566504,8.793913
1421631097152.00,-0.6149213,4.944069,8.663235
1421631097178.00,-0.67105454,4.9575405,8.619825
1421631097203.00,-0.62674665,4.9398775,8.558602
1421631097204.00,-0.5761519,5.1567764,8.60306
1421631097223.00,-0.50100815,4.918921,8.58839
1421631097242.00,-0.46523255,4.889133,8.553513
1421631097263.00,-0.55399793,5.0260983,8.580157
1421631097284.00,-0.49427214,4.923262,8.760532
1421631097304.00,-0.49741563,4.8668294,8.828791
1421631097323.00,-0.79484713,5.1326766,8.9883585
1421631097343.00,-0.46613067,5.1037865,8.938811
1421631097363.00,-0.29249176,4.932992,8.354876
1421631097423.00,-0.30686188,4.817133,7.979606
1421631097424.00,-0.42766067,5.0395703,8.107739
1421631097425.00,-0.033679962,4.952152,7.939939
1421631097457.00,-0.040266264,5.1250424,7.9010196
1421631097472.00,-0.26749375,4.824318,8.228389
1421631097482.00,0.06556366,4.7368994,8.201445
1421631097505.00,0.124541014,4.8187795,8.228389
1421631097542.00,0.007783813,4.878655,8.58854
1421631097543.00,0.121996306,5.1446514,8.864865
1421631097564.00,0.16944763,4.9289503,8.635841
1421631097582.00,0.09535172,4.92416,8.994347
1421631097603.00,0.25806335,4.72208,9.166039
1421631097625.00,0.42511597,4.4809318,8.871152
1421631097643.00,0.29803026,4.4230022,8.405171
1421631097663.00,0.11600876,4.228407,8.648865
1421631097684.00,-0.36164796,4.554429,8.63165
1421631097763.00,0.08202942,4.5496387,8.426577
1421631097764.00,0.6215076,4.1671844,8.822055
1421631097769.00,0.4367917,4.4084826,9.248668
1421631097770.00,0.13906083,4.251459,9.195229
1421631097793.00,0.24144791,3.9073248,8.923992
1421631097804.00,0.5724097,3.623515,8.885074
1421631097823.00,0.6677614,3.7356317,9.067544
1421631097846.00,0.6018984,3.9887552,9.676927
1421631097892.00,1.002166,3.6705172,8.442594
1421631097895.00,0.85217786,3.3983831,6.853049
1421631097903.00,0.33754808,3.4823585,7.5384736
1421631097923.00,-1.2115805,4.640051,9.969419
1421631097943.00,-0.9753717,2.4474106,12.926519
1421631097963.00,-0.343835,2.5247996,12.073294
1421631097983.00,1.0144404,3.70764,9.743538
1421631098003.00,0.32093263,5.707032,8.097561
1421631098024.00,-0.005987549,5.5625825,8.557854
1421631098107.00,0.6117778,4.787494,10.922786
1421631098107.00,0.45310774,4.151467,10.134226
1421631098108.00,-0.37871248,2.8503726,7.5971518
1421631098110.00,-0.76131684,2.7672954,6.65531
1421631098142.00,0.005538483,2.1758752,8.140073
1421631098143.00,-0.3824547,5.0187635,13.738281
1421631098162.00,-0.14250366,5.357659,9.078621
1421631098184.00,0.68497556,3.8818777,4.663103
1421631098222.00,0.84708846,6.1724143,4.9735575
1421631098223.00,1.6006215,9.063502,5.7471485
1421631098244.00,2.923271,6.010152,6.431825
1421631098263.00,3.3736844,2.9177325,4.991969
1421631098285.00,2.8372,1.9833755,5.3030224
1421631098304.00,0.49621812,2.5773404,4.2372384
1421631098323.00,3.2404613,2.3804998,7.8064165
1421631098344.00,2.5060885,1.4605129,5.0653167
1421631098400.00,1.9294876,0.9883946,5.6044955
1421631098401.00,0.54067564,0.52540743,6.3662615
1421631098408.00,1.7792001,1.0249187,5.2371593
1421631098438.00,3.3111145,1.4814693,4.47225
1421631098443.00,3.1037955,1.0809022,5.7766376
1421631098463.00,3.465743,0.055235136,8.411159
1421631098484.00,5.7323294,0.64845157,9.179511
1421631098511.00,6.995253,0.8026309,8.330028
1421631098525.00,5.8978853,0.53902906,7.489675
1421631098543.00,7.4492593,-0.82328796,8.910071
1421631098563.00,11.09867,-0.45430526,8.438702
1421631098583.00,13.424833,-0.36718643,8.713531
1421631098614.00,12.281061,-0.71281767,8.573122
1421631098626.00,9.961485,-1.4421011,6.721323
1421631098643.00,10.06971,-2.043251,5.758974
1421631098663.00,10.772199,-1.8004559,6.1689715
1421631098682.00,10.75259,-2.6180558,7.3735166
1421631098729.00,10.081835,-3.5827994,7.2606516
1421631098730.00,11.828702,-3.852838,6.023175
1421631098743.00,13.3287325,-3.5798059,3.9459443
1421631098763.00,13.427677,-3.6705172,2.7318192
1421631098906.00,12.384646,-3.9050794,3.4120047
1421631098908.00,11.948752,-3.495082,4.5315266
1421631098910.00,11.423345,-3.0036538,3.6781511
1421631098910.00,10.263257,-2.9229717,2.1534219
1421631098911.00,8.701406,-2.8195367,0.72299653
1421631098916.00,8.177495,-2.8762689,1.081052
1421631098919.00,8.956026,-2.361639,2.1387525
1421631098923.00,9.463021,-2.6156607,3.424878
1421631098970.00,8.62207,-2.9859905,5.139562
1421631098981.00,10.4936285,-2.7267296,5.4110975
1421631098984.00,10.51698,-2.0932472,1.4944922
1421631099005.00,9.100625,-2.735711,-0.882415
1421631099067.00,5.6025496,-3.3326697,-2.4129822
1421631099069.00,2.464026,-3.197351,-1.7649797
1421631099070.00,2.7027795,-2.8039691,-0.10642868
1421631099092.00,3.1323862,0.44906616,0.7683522
1421631099103.00,3.492687,-1.4123131,-0.5625302
1421631099123.00,6.0959234,-6.2447143,-3.3422499
1421631099144.00,7.278614,-2.9530592,-0.30132338
1421631099164.00,10.418634,-4.109255,1.5582596
1421631099189.00,10.058333,-5.9549165,-1.8788928
1421631099203.00,6.1535535,-5.589227,-2.739603
1421631099223.00,4.9786468,-9.248069,3.6709661
1421631099243.00,5.9567127,-14.812897,1.2365785
1421631099263.00,8.996292,-11.93573,4.3956094
1421631099283.00,5.804929,-11.23833,-3.5980678
1421631099311.00,6.2319903,-9.239536,-3.7538939
1421631099404.00,3.785927,-9.87257,-0.6819818
1421631099405.00,5.290299,-9.294921,1.0002201
1421631099406.00,5.5140834,-7.0427046,1.2844789
1421631099407.00,5.8149576,-5.71751,0.50744474
1421631099408.00,5.6645207,-6.894213,-0.9539662
1421631099428.00,6.1237655,-9.439371,-3.4428406
1421631099444.00,0.5011578,-6.6415386,10.234966
1421631099463.00,3.807632,-8.131391,-2.09669
1421631099483.00,0.93106383,-8.231083,-1.063688
1421631099503.00,4.8190784,-5.401068,0.46897477
1421631099523.00,3.7766464,-5.5591397,-0.16795075
1421631099543.00,2.7186465,-2.5530908,-1.1847862
1421631099563.00,3.2915053,-1.2611275,-0.8611592
1421631099583.00,2.3324497,-1.0717713,-3.1924114
1421631099603.00,-0.633782,0.74889266,2.6759853
1421631099623.00,1.1509566,-6.34276,-2.8490255
1421631099694.00,1.411415,-10.30517,-2.2861958
1421631099695.00,1.8038988,-8.673114,2.9960198
1421631099696.00,0.920885,-6.615194,0.42242157
1421631099703.00,2.1143532,-6.1733127,2.9563522
1421631099723.00,1.6329542,-4.6867537,3.0027556
1421631099743.00,0.9216335,-3.4178426,1.3552817
1421631099763.00,6.437064,-16.108751,7.8920383
1421631099783.00,5.327871,-18.777702,2.1573138
1421631099803.00,0.9476793,-7.2072124,-8.4608555
1421631099823.00,-0.2748285,-5.2976336,-4.348757
1421631099843.00,-1.0943742,-14.805861,-0.14879058
1421631099863.00,-2.8551626,-11.638448,0.5278024
1421631099883.00,-3.4557137,-7.964039,0.6725514
1421631099903.00,-3.538342,-7.591763,1.0859916
1421631099924.00,-3.5804045,-9.24253,1.7548009
1421631099943.00,-3.573369,-9.894424,1.4311738
1421631100023.00,-3.3019836,-9.485774,0.82867676
1421631100025.00,-2.7494824,-8.927884,0.20956421
1421631100026.00,-1.807192,-9.1849,0.47047165
1421631100026.00,-1.5646962,-9.3470125,0.26794282
1421631100048.00,-1.2320879,-9.537566,0.104333036
1421631100064.00,-1.510958,-9.6107645,0.55669236
1421631100083.00,-1.8127304,-9.597591,0.8475375
1421631100103.00,-2.0564237,-9.5455,0.7325766
1421631100123.00,-1.778751,-9.4104805,0.13022919
1421631100144.00,-1.5941849,-9.576036,0.07020401
1421631100163.00,-1.629212,-9.693842,0.4062552
1421631100183.00,-1.8606308,-9.564361,0.5525011
1421631100203.00,-1.7690213,-9.518257,0.24758515
1421631100223.00,-1.5325131,-9.644744,0.1353186
1421631100243.00,-1.6175363,-9.69444,0.3439847
1421631100264.00,-1.6880397,-9.55987,0.2932402
1421631100330.00,-1.8410215,-9.408535,0.3689827
1421631100331.00,-1.651815,-9.51661,0.4514612
1421631100332.00,-1.5319144,-9.472003,0.30147308
1421631100343.00,-1.3813275,-9.41093,0.298629
1421631100363.00,-1.2030482,-9.528735,0.52765274
1421631100385.00,-1.2698094,-9.625434,0.5661228
1421631100403.00,-1.4807209,-9.657317,0.5442682
1421631100424.00,-1.676364,-9.520802,0.26719436
1421631100443.00,-1.9154168,-9.442065,0.15417938
1421631100463.00,-1.7510587,-9.540561,0.120948486
1421631100483.00,-1.6392412,-9.610615,-0.008532257
1421631100503.00,-1.5343094,-9.718989,-0.13187577
1421631100523.00,-1.5383509,-9.725426,-0.27931917
1421631100543.00,-1.5075151,-9.955049,-0.5849835
1421631100563.00,-1.7467177,-10.017169,-1.101709
1421631100585.00,-1.8438656,-10.239757,-1.8947598
1421631100604.00,-1.9955003,-10.360704,-2.8346553
1421631100688.00,-1.9796333,-11.072624,-4.2026606
1421631100689.00,-1.2304413,-11.749966,-4.1347017
1421631100690.00,-0.12499008,-12.364139,-2.5848248
1421631100691.00,1.4659016,-13.609549,-2.1685405
1421631100704.00,1.2124786,-12.518318,0.8370593
1421631100723.00,-1.9758911,-9.863888,4.1511674
1421631100743.00,-5.0388217,-8.3129635,2.503993
1421631100764.00,-4.934489,-7.534432,-1.9670595
1421631100783.00,-2.2781126,-8.17016,-4.105363
1421631100803.00,-0.7408095,-8.307425,-2.2751188
1421631100823.00,-0.26045838,-8.076455,-1.2344829
1421631100843.00,0.266895,-7.391928,-1.0783576
1421631100863.00,0.054337006,-7.272177,-1.3434563
1421631100883.00,-0.9301657,-7.693102,-1.6747174
1421631100903.00,-2.0324736,-8.206235,-2.4089406
1421631100923.00,-2.2713766,-7.5366774,-3.769162
1421631100944.00,-2.1222868,-6.743327,-5.462441
1421631100995.00,-2.1146526,-6.531069,-6.1037073
1421631100996.00,-2.0984862,-6.340814,-5.1930013
1421631101003.00,-2.0624113,-5.809419,-3.74132
1421631101023.00,-1.9077828,-5.2280283,-3.029999
1421631101043.00,-2.6611662,-6.4343696,-0.37092865
1421631101063.00,-1.7070502,-11.606564,-0.36449203
1421631101083.00,1.486858,-17.668058,-7.090306
1421631101107.00,-1.7720151,-11.607162,0.83032334
1421631101124.00,-4.0921903,-6.0823016,3.5527122
1421631101143.00,-3.8459523,-4.966522,1.4013858
1421631101163.00,-3.3639545,-7.849377,-0.036973115
1421631101183.00,-2.3535557,-11.643388,-1.4117143
1421631101211.00,-1.9467018,-13.336966,0.053139497
1421631101223.00,-1.7051042,-12.391382,3.122806
1421631101243.00,-1.1054512,-11.120375,4.7556105
1421631101266.00,0.53783154,-11.163036,5.3022738
1421631101321.00,2.7681935,-12.5898695,2.9374914
1421631101322.00,2.8285182,-13.422887,0.49651748
1421631101324.00,2.1104612,-13.046869,0.042511597
1421631101343.00,1.0500664,-12.287349,-1.7395326
1421631101363.00,0.5164261,-11.508518,-2.5237517
1421631101387.00,1.1162288,-11.630065,-2.5890162
1421631101403.00,2.624193,-11.575429,-3.5211277
1421631101425.00,2.9662316,-10.886561,-7.572453
1421631101447.00,1.2361294,-9.082663,-8.687335
1421631101463.00,-0.05613327,-8.826096,-8.337811
1421631101483.00,0.3131488,-9.209748,-8.934172
1421631101503.00,0.91863966,-7.560029,-7.5345817
1421631101523.00,1.7027092,-5.8184004,-0.3595523
1421631101543.00,-0.3713777,-8.765772,7.3295083
1421631101563.00,-0.74829394,-12.7747345,7.490274
1421631101584.00,-4.213438,-17.293837,-0.5590874
1421631101603.00,-6.019732,-19.209852,-7.6405616
1421631101655.00,-3.7318895,-19.31733,-0.6803352
1421631101656.00,-4.9826884,-17.849333,1.5542179
1421631101666.00,-1.3227992,-16.737295,1.7878821
1421631101683.00,1.5476317,-13.057048,1.2747492
1421631101703.00,0.7137158,-8.8139715,0.80876815
1421631101724.00,-0.4924759,-6.7850904,2.3834934
1421631101743.00,-1.9669098,-3.6077976,1.8190173
1421631101763.00,-3.3819172,-1.502276,0.66686326
1421631101783.00,-4.5123663,1.0879376,0.50325346
1421631101803.00,-6.531368,2.893483,1.0639874
1421631101825.00,-6.335126,2.742896,0.6186635
1421631101846.00,-2.0546274,-1.090632,-3.7714074
1421631101864.00,2.6997857,-11.173514,-14.932797
1421631101884.00,4.2972636,-17.519567,-16.24377
1421631101904.00,0.68437684,-5.935158,1.3807287
1421631101923.00,-2.9106972,-7.3956704,12.658875
1421631101998.00,-9.58427,-16.665443,9.731114
1421631101999.00,-5.178631,-11.477982,4.620292
1421631102000.00,-7.047794,-5.499414,2.3772066
1421631102003.00,-6.4265857,-9.847721,6.6662374
1421631102023.00,-5.672903,-16.622185,8.097411
1421631102043.00,-1.3986914,-18.384619,1.5750247
1421631102064.00,4.915478,-16.28269,-3.6372862
1421631102083.00,7.024892,-14.555881,-1.1323951
1421631102103.00,5.303322,-14.961537,-0.80742097
1421631102124.00,1.750909,-14.576239,-3.8820274
1421631102143.00,0.8659493,-12.156819,-10.351125
1421631102163.00,-0.16690293,-10.336306,-11.456576
1421631102183.00,-1.4103671,-7.5160203,-7.762857
1421631102204.00,1.3615686,-5.987998,-8.904084
1421631102223.00,2.915038,-3.560945,-4.869524
1421631102243.00,0.40311173,-3.179089,3.682043
1421631102316.00,-1.443149,-3.1507978,5.2673965
1421631102317.00,-1.3766872,-6.266868,2.392475
1421631102318.00,-2.7255323,-17.08547,-4.0680904
1421631102332.00,-9.292975,-19.241737,-9.394315
1421631102343.00,-4.1652384,-19.218985,-1.0193802
1421631102363.00,-6.0427837,-18.6822,3.7116816
1421631102383.00,-3.619174,-15.223642,4.0570135
1421631102403.00,0.37107834,-10.774295,0.008981323
1421631102427.00,1.6140934,-7.9074564,1.0515633
1421631102448.00,0.09744736,-5.8112154,1.7721648
1421631102464.00,-2.0772305,-3.3304243,2.232308
1421631102484.00,-4.5911026,-0.88481003,1.4569203
1421631102503.00,-6.6544123,1.932182,1.2328362
1421631102524.00,-6.997798,3.0466146,2.1513262
1421631102543.00,-4.9514036,1.4078224,-0.8704399
1421631102564.00,0.7623646,-5.725294,-12.175381
1421631102634.00,3.8122723,-17.53798,-18.541792
1421631102635.00,2.6890082,-7.896529,1.0234218
1421631102636.00,-1.0826985,-4.1664357,15.045513
1421631102647.00,-9.136401,-16.550184,11.333681
1421631102664.00,-5.579647,-10.83911,8.278984
1421631102684.00,-5.7218513,-5.827382,6.040539
1421631102703.00,-5.523514,-12.46413,8.55486
1421631102724.00,-4.027076,-18.599571,4.6845083
1421631102744.00,0.945434,-18.424885,-6.4912515
1421631102763.00,4.695735,-14.946419,-0.6870712
1421631102783.00,4.2098455,-16.424744,-1.6622932
1421631102804.00,2.5396187,-16.331488,-4.437372
1421631102823.00,-0.6116281,-13.034445,-10.984009
1421631102843.00,-0.8092172,-11.038645,-8.762628
1421631102863.00,-0.3968248,-8.565787,-6.597081
1421631102883.00,2.460733,-6.1309505,-9.928703
1421631102937.00,2.6053321,-3.9019358,-5.0162187
1421631102938.00,0.46538222,-3.240611,2.4080424
1421631102947.00,-0.59770703,-2.6557772,1.9670595
1421631102964.00,-1.401236,-5.3658915,0.3252736
1421631102983.00,-1.2301419,-16.140785,-0.44547364
1421631103004.00,-8.108338,-19.113153,-6.755003
1421631103029.00,-4.521348,-19.048637,-2.2854474
1421631103046.00,-4.459227,-19.386486,1.927392
1421631103065.00,-2.7437942,-16.40798,5.8692946
1421631103084.00,0.8205936,-12.352014,2.5610244
1421631103104.00,1.9904109,-7.2498736,1.7555493
1421631103123.00,0.45280838,-4.468508,2.7062223
1421631103143.00,-2.175576,-1.5497273,3.0370345
1421631103163.00,-5.2519784,0.8125104,1.1410772
1421631103183.00,-6.532865,3.4082625,0.6941066
1421631103204.00,-5.7151155,3.5348992,1.6706758
1421631103278.00,-4.021238,1.0819501,-2.0954924
1421631103279.00,-0.011825409,-6.152506,-14.547947
1421631103280.00,4.2047563,-17.75458,-18.864521
1421631103290.00,-2.8357031,-7.244485,10.847193
1421631103303.00,-6.312523,-8.50696,13.805791
1421631103323.00,-9.428144,-13.6647835,12.63268
1421631103343.00,-7.2362523,-4.745432,7.092102
1421631103364.00,-6.2007055,-8.426876,9.0148535
1421631103390.00,-4.267176,-17.487534,10.179132
1421631103413.00,-0.25941056,-19.296373,-4.6666956
1421631103426.00,3.4163456,-15.902481,-8.105045
1421631103443.00,5.015171,-15.073804,2.679428
1421631103463.00,4.4459047,-17.46613,-2.7080185
1421631103483.00,2.810256,-15.771952,-8.801248
1421631103503.00,-0.25192612,-12.630585,-10.37732
1421631103523.00,-1.9022442,-9.504934,-8.1266
1421631103594.00,0.31659165,-7.214098,-8.150701
1421631103599.00,3.1144235,-4.2468185,-7.441026
1421631103600.00,1.5962806,-1.9835253,1.0476713
1421631103607.00,0.3968248,-1.3942008,0.925226
1421631103627.00,-0.66416883,-2.321223,0.23800507
1421631103644.00,-0.22243744,-10.48345,-0.16420853
1421631103666.00,-0.5228627,-18.1529,-2.2246737
1421631103683.00,-7.6932516,-19.386934,-7.035819
1421631103704.00,-4.9100895,-18.823208,0.5800438
1421631103723.00,-5.9418936,-18.62023,5.3082614
1421631103743.00,-3.9902523,-14.140644,5.54462
1421631103764.00,1.5158976,-10.792108,1.8024019
1421631103783.00,2.134561,-6.3463526,1.1898756
1421631103803.00,-0.5644762,-2.6206005,2.3719676
1421631103824.00,-3.6160305,0.7319778,2.531386
1421631103843.00,-5.9025254,3.4548156,1.5013778
1421631103864.00,-6.0607467,4.9443684,2.7881021
1421631103926.00,-4.9720607,3.7092865,0.47690827
1421631103927.00,-0.89244413,0.599653,-9.351803
1421631103928.00,3.033442,-15.15254,-18.15769
1421631104016.00,4.5451484,-14.355448,-8.858429
1421631104016.00,-1.14931,-2.2781126,15.251185
1421631104017.00,-11.890823,-16.31158,12.169992
1421631104018.00,-7.582632,-14.375057,7.5300913
1421631104027.00,-5.5800962,-2.9433293,2.7273285
1421631104044.00,-5.2621574,-8.170759,8.741073
1421631104069.00,-4.2203236,-17.47496,9.774075
1421631104083.00,0.4297563,-19.294727,-3.0264065
1421631104104.00,5.324877,-15.7417145,-6.9877687
1421631104124.00,5.3688855,-16.673826,-5.351372
1421631104144.00,3.8782852,-14.866035,-7.399712
1421631104164.00,-1.0615925,-11.495345,-11.185789
1421631104184.00,-1.2924124,-9.60343,-6.2815375
1421631104203.00,0.5911208,-7.6788816,-6.8966084
1421631104270.00,2.7497818,-4.9587383,-8.422984
1421631104271.00,1.4064752,-2.876568,-0.9548643
1421631104272.00,-0.082478486,-1.9172131,1.1234138
1421631104283.00,-0.44023454,-1.6170872,0.33620086
1421631104305.00,-0.9340576,-6.6279173,-1.127156
1421631104323.00,1.2090358,-17.468822,-2.2189856
1421631104343.00,-6.0391912,-19.293829,-7.092102
1421631104365.00,-5.557643,-18.323845,-1.7458196
1421631104386.00,-3.4003289,-19.396664,2.9087512
1421631104404.00,-3.7832327,-15.656991,5.830825
1421631104424.00,0.23052064,-10.775493,1.9357746
1421631104443.00,2.1739292,-7.866741,2.1686902
1421631104465.00,0.1579216,-4.144282,2.49576
1421631104484.00,-2.9841943,-0.66536635,2.4754024
1421631104503.00,-5.9405465,2.5009992,0.8211923
1421631104524.00,-6.4925985,5.2346144,2.3845413
1421631104595.00,-5.9053698,2.8517199,2.1612058
1421631104596.00,-2.2757177,-1.695075,-4.4402165
1421631104597.00,2.840643,-15.2922,-17.305813
1421631104606.00,4.087101,-17.303268,-17.62944
1421631104624.00,-4.0891967,0.4128415,14.11864
1421631104645.00,-9.497749,-11.828103,11.758947
1421631104664.00,-10.128837,-13.533058,10.71397
1421631104683.00,-6.3060865,-5.323829,7.648046
1421631104703.00,-6.5042744,-10.348131,10.247391
1421631104724.00,-4.336183,-18.01848,9.171128
1421631104744.00,2.1155508,-19.353554,-8.762179
1421631104764.00,6.419251,-16.158598,-4.8913784
1421631104783.00,5.6583834,-16.89881,-2.1893473
1421631104804.00,4.0209384,-16.660206,-5.5432725
1421631104823.00,0.027093658,-12.866644,-12.049792
1421631104844.00,-0.30611342,-11.05571,-8.140821
1421631104867.00,0.27318192,-7.7568693,-6.6985703
1421631104939.00,2.5447083,-5.4759126,-9.663754
1421631104940.00,2.9533584,-2.2743704,-3.2400124
1421631104941.00,0.32721955,-2.7363098,2.159709
1421631104951.00,-0.34548157,-2.0074754,0.6430628
1421631104965.00,-0.6280939,-7.241042,-2.5245004
1421631104984.00,1.1419753,-17.73527,0.38335282
1421631105007.00,-6.649622,-19.330053,-5.480703
1421631105028.00,-6.892267,-18.03839,-6.1102934
1421631105044.00,-4.7850995,-19.234253,3.099754
1421631105063.00,-6.247558,-17.596508,6.530919
1421631105083.00,-0.26629624,-12.456945,2.585723
1421631105104.00,2.858755,-7.4265065,2.1248314
1421631105124.00,1.3189073,-3.5172358,2.871329
1421631105145.00,-1.9854712,-0.34937346,3.7375777
1421631105165.00,-5.224286,2.2201831,2.9903316
1421631105249.00,-6.3075833,4.779711,3.530259
1421631105250.00,-5.711822,4.2155337,1.9139199
1421631105251.00,-2.109563,1.1457175,-4.815187
1421631105252.00,3.044519,-12.929214,-17.284407
1421631105264.00,3.447032,-18.360369,-18.815273
1421631105284.00,-3.210823,-2.3340962,13.313464
1421631105304.00,-7.8525205,-12.628638,13.848601
1421631105323.00,-10.16102,-16.064295,12.235107
1421631105351.00,-7.9894857,-5.0099316,7.2977743
1421631105372.00,-8.003407,-8.3973875,8.747509
1421631105384.00,-6.0881395,-17.524208,11.77661
1421631105404.00,0.3915857,-19.301313,-5.1519866
1421631105424.00,7.9352984,-17.61881,-11.944561
1421631105444.00,8.114626,-18.52368,-5.0216074
1421631105464.00,7.1010833,-16.132702,-10.52132
1421631105485.00,1.7802479,-12.490026,-9.619297
1421631105548.00,-0.51582736,-9.627978,-7.608678
1421631105549.00,2.776127,-6.5891476,-8.929681
1421631105551.00,1.8190173,-3.5372941,-2.2094054
1421631105564.00,-0.5680687,-2.9817994,-0.98480207
1421631105584.00,-1.1139835,-0.7818242,-3.1043944
1421631105604.00,-2.6575735,-3.9676492,0.26854157
1421631105624.00,-1.1276051,-14.9792,-0.47735733
1421631105644.00,-3.8443058,-18.955233,-6.4921494
1421631105664.00,-1.8594333,-19.496058,-2.3703208
1421631105684.00,-2.2055137,-19.569555,4.5921507
1421631105708.00,-0.8327184,-14.960639,4.262686
1421631105729.00,0.73437285,-7.355704,3.5247202
1421631105743.00,1.7368382,-3.5170863,2.9576995
1421631105764.00,-0.5578899,-0.4950206,1.6353493
1421631105784.00,-4.346661,2.1344116,0.6629713
1421631105803.00,-6.3114753,3.9435494,1.5395485
1421631105873.00,-6.3999414,3.4983752,1.3422588
1421631105874.00,-3.2371683,0.42751098,-2.5334816
1421631105875.00,1.543141,-7.751181,-14.716946
1421631105883.00,2.3468199,-17.836609,-18.857336
1421631105906.00,-1.8753003,-3.9425015,10.631791
1421631105924.00,-5.9035735,-9.688153,12.885205
1421631105947.00,-12.636123,-18.235529,9.989477
1421631105964.00,-6.3608723,-5.812413,5.5486617
1421631105984.00,-5.7029905,-7.267537,8.998687
1421631106004.00,-4.487967,-15.626904,12.58957
1421631106024.00,-0.29578492,-19.04325,1.6169375
1421631106045.00,6.1483145,-18.216518,-11.177556
1421631106064.00,7.4303985,-16.25844,-3.2434552
1421631106084.00,6.0146427,-18.05665,-4.3436675
1421631106104.00,2.1448896,-14.416969,-10.411899
1421631106124.00,-1.5295193,-11.546838,-8.3217945
1421631106144.00,-0.97402453,-7.944729,-6.753805
1421631106247.00,1.8188677,-4.11165,-10.452314
1421631106248.00,4.0002813,-1.9196081,-4.37121
1421631106249.00,2.8942313,-2.1064196,0.36119887
1421631106251.00,1.5690372,-1.5543677,-2.1960833
1421631106252.00,-0.36119887,-4.7427373,0.44801834
1421631106269.00,1.0508149,-15.440541,2.1656964
1421631106284.00,-4.8966174,-19.017952,-6.1204724
1421631106304.00,-7.2769675,-17.71596,-7.8794646
1421631106324.00,-3.530259,-18.55766,1.0142908
1421631106348.00,-3.9761815,-18.328337,6.145171
1421631106377.00,1.0886861,-13.404176,3.533552
1421631106384.00,3.2708483,-8.821755,1.6151413
1421631106404.00,1.7265097,-4.778064,2.6273365
1421631106424.00,-0.89169574,-1.459465,3.2063324
1421631106444.00,-5.317692,1.3247452,4.023034
1421631106525.00,-7.0964427,4.455934,3.8025427
1421631106526.00,-5.9213862,5.626799,0.7006929
1421631106527.00,-2.0698957,4.110003,-5.6013517
1421631106528.00,3.2717464,-5.713768,-17.428408
1421631106548.00,-1.2223581,-7.2625976,-8.947194
1421631106564.00,-4.400549,-2.645299,12.885205
1421631106584.00,-9.3277025,-16.461119,12.907958
1421631106604.00,-3.8823266,-18.870808,-0.057929534
1421631106624.00,0.51837206,-2.905009,1.5688875
1421631106646.00,-2.3833437,-4.1082067,8.0105915
1421631106678.00,-2.167343,-15.496076,14.695391
1421631106684.00,-1.8679656,-19.025436,5.7404127
1421631106704.00,3.3009357,-17.442778,-10.212363
1421631106724.00,6.9344797,-18.958376,-8.953182
1421631106744.00,4.615352,-17.343084,-5.7598724
1421631106764.00,-1.5006294,-12.726235,-11.873309
1421631106784.00,-0.7171587,-9.240435,-6.221812
1421631106804.00,1.3786331,-6.6136966,-8.164771
1421631106891.00,5.902825,-3.9766304,-8.33362
1421631106891.00,5.282515,-2.8139982,0.7032376
1421631106893.00,1.3819263,-2.4728577,1.4087205
1421631106894.00,-1.0823991,-1.1716136,-2.2544618
1421631106913.00,-2.1149518,-6.6547112,-1.3136683
1421631106924.00,1.2332854,-16.629519,-2.0207977
1421631106944.00,-3.8637652,-19.179615,-7.4446187
1421631106964.00,-6.6060624,-18.597326,-5.942792
1421631106984.00,-3.3057258,-19.33634,4.5923004
1421631107005.00,-2.0228934,-18.449284,6.2617784
1421631107024.00,2.3388863,-12.851376,3.3486865
1421631107045.00,3.1436129,-7.894583,2.8246262
1421631107064.00,0.51208514,-3.4727783,3.0660741
1421631107086.00,-2.7777736,0.35610947,3.133883
1421631107104.00,-6.8472114,2.9692254,1.2296928
1421631107124.00,-8.283923,5.5896764,-0.003143463
1421631107192.00,-7.747439,3.6832407,0.9419911
1421631107193.00,-3.103646,-0.5402266,-2.2797592
1421631107194.00,4.1896377,-11.052567,-16.57129
1421631107205.00,4.030219,-17.159716,-14.142441
1421631107224.00,-2.8620484,-1.3792319,14.173427
1421631107244.00,-7.306456,-9.080866,12.3967705
1421631107270.00,-11.967913,-18.055155,9.033714
1421631107284.00,-4.6643004,-7.561376,7.705826
1421631107304.00,-4.3108854,-11.147319,11.070978
1421631107324.00,-2.0540285,-18.113981,11.055261
1421631107345.00,2.9175828,-19.381546,-7.188651
1421631107364.00,6.5949855,-17.556242,-9.23774
1421631107384.00,5.753735,-17.944683,-5.552404
1421631107404.00,4.506828,-15.862663,-8.991801
1421631107424.00,-0.2363585,-13.239668,-10.458451
1421631107444.00,-1.0280621,-8.705148,-6.3156667
1421631107500.00,0.59950334,-5.1471963,-6.824309
1421631107500.00,3.2698004,-2.4619303,-6.2150755
1421631107508.00,2.3345454,-1.963467,-1.8410215
1421631107525.00,0.67509615,-1.2844789,-2.7358608
1421631107544.00,-1.3388159,-2.174079,-1.5884967
1421631107564.00,-0.9994716,-9.26678,0.45774812
1421631107584.00,2.092349,-18.107395,-1.719175
1421631107604.00,-5.5146823,-19.380648,-7.3759117
1421631107624.00,-6.70845,-18.320852,-4.0926394
1421631107644.00,-3.290158,-19.409687,5.1361194
1421631107664.00,-1.1729608,-14.687457,5.8011866
1421631107687.00,3.15454,-9.376801,2.722838
1421631107704.00,3.161276,-6.249055,2.6343718
1421631107724.00,-0.063767396,-2.6110203,4.087999
1421631107744.00,-4.562213,1.2534933,4.473747
1421631107764.00,-7.01127,4.8428793,3.28432
1421631107825.00,-6.767876,5.209317,4.0124063
1421631107826.00,-4.4545865,2.312541,-0.75712556
1421631107826.00,1.6122972,-3.53445,-14.4609785
1421631107847.00,3.6453695,-17.293987,-18.852547
1421631107872.00,0.46328658,-7.5088353,6.569838
1421631107884.00,-3.5929785,-6.4358664,16.312777
1421631107905.00,-13.289215,-17.425713,11.944262
1421631107924.00,-6.5378046,-6.606212,4.9927177
1421631107944.00,-6.548582,-4.090394,9.677975
1421631107968.00,-6.105803,-15.588882,15.16676
1421631107989.00,-2.3402336,-19.03816,4.059259
1421631108004.00,5.1618657,-18.025517,-13.914016
1421631108025.00,7.8451858,-17.642612,-5.23686
1421631108044.00,6.421646,-19.151625,-4.3527985
1421631108064.00,4.0430923,-14.704822,-12.52206
1421631108084.00,0.21165985,-11.900702,-10.616822
1421631108104.00,-0.3598517,-8.538693,-5.6479053
1421631108194.00,1.2112812,-4.484225,-7.674092
1421631108196.00,3.085384,-0.8747809,-3.5947747
1421631108197.00,1.4602134,-1.1952645,-1.7437239
1421631108198.00,0.8918454,-1.5612533,-2.191892
1421631108211.00,-0.123193815,-3.7336857,0.69725007
1421631108224.00,2.2311103,-14.217734,0.62734544
1421631108244.00,0.13606705,-18.851648,-3.7537441
1421631108264.00,-5.9210873,-18.669327,-7.6550813
1421631108284.00,-3.5148408,-18.604961,1.2963043
1421631108304.00,-4.497547,-19.132315,5.96779
1421631108324.00,-1.237776,-12.862303,3.8169127
1421631108344.00,2.1637504,-7.648794,1.3340259
1421631108364.00,1.8070422,-4.711153,2.3884332
1421631108385.00,-1.3355228,-0.7219487,3.1220577
1421631108405.00,-4.546645,1.5998731,2.891088
1421631108425.00,-6.03979,4.567302,2.278412
1421631108510.00,-6.3527894,3.6306999,2.068848
1421631108510.00,-3.6051033,0.2535727,-1.3477973
1421631108518.00,3.7378771,-9.320218,-15.752493
1421631108519.00,5.261858,-18.185383,-19.02828
1421631108534.00,-2.9307554,-8.40083,10.960208
1421631108544.00,-8.671318,-9.857601,14.635815
1421631108564.00,-11.795172,-10.413994,14.486725
1421631108584.00,-10.379116,-0.70458484,9.798325
1421631108604.00,-10.634036,-9.8149395,13.076807
1421631108624.00,-5.0581317,-18.131346,12.504397
1421631108645.00,1.4882053,-19.383942,-8.214618
1421631108664.00,7.5260496,-16.748522,-12.792249
1421631108684.00,7.9279637,-17.824783,-2.4286995
1421631108705.00,6.5517254,-15.03219,-5.777685
1421631108724.00,2.0751348,-12.33959,-11.342813
1421631108744.00,-0.19743942,-10.847941,-7.4616833
1421631108764.00,-0.20387603,-7.3546557,-6.5205903
1421631108818.00,2.2201831,-2.9292586,-7.505093
1421631108819.00,1.5910414,-0.9190887,-1.0759625
1421631108828.00,0.37062928,-0.7532337,-1.1605366
1421631108844.00,-0.084873505,-0.36524048,-2.2570066
1421631108864.00,-0.44143203,-4.8978148,0.8587642
1421631108884.00,3.4905913,-16.365019,-0.043858796
1421631108904.00,-0.48080018,-19.14369,-5.238656
1421631108925.00,-5.240153,-18.19736,-6.877149
1421631108945.00,-3.0582902,-19.016306,4.4036922
1421631108964.00,-4.3773475,-18.690582,5.7535853
1421631108984.00,4.49E-04,-11.126513,3.695066
1421631109004.00,3.0596375,-7.8136015,1.904789
1421631109024.00,1.1277548,-3.7031493,2.2900877
1421631109044.00,-2.0926483,-0.3912863,3.0647268
1421631109064.00,-5.5009108,1.8242564,3.0799952
1421631109084.00,-6.4797254,3.5938766,4.08261
1421631109104.00,-6.190377,3.001708,2.3665786
1421631109198.00,-2.7274783,0.3357518,-6.3719497
1421631109199.00,0.18815872,-13.98407,-17.64441
1421631109200.00,3.6955152,-16.775316,-9.513916
1421631109202.00,-0.24040009,0.11121872,14.615158
1421631109213.00,-8.654253,-14.588364,11.073972
1421631109226.00,-8.174651,-13.209131,11.884236
1421631109244.00,-6.873257,-3.407963,8.81906
1421631109271.00,-7.948621,-9.908046,11.363769
1421631109288.00,-5.0933084,-18.01384,8.855286
1421631109305.00,2.209256,-19.367924,-11.334879
1421631109324.00,7.4101906,-16.955242,-8.425828
1421631109344.00,7.6225986,-18.4174,-4.2737627
1421631109364.00,7.111711,-15.281123,-10.144105
1421631109384.00,1.7765057,-11.38248,-9.841285
1421631109471.00,-0.09759705,-8.77625,-5.5941668
1421631109472.00,1.3783337,-5.205126,-6.7993107
1421631109473.00,2.9618907,-1.736988,-3.9907012
1421631109474.00,1.0702744,-1.8775456,-1.4311738
1421631109486.00,-0.24773483,-1.3933026,-3.0609846
1421631109505.00,-1.8368303,-2.0857627,-1.565744
1421631109524.00,-0.45595184,-10.372829,0.034428407
1421631109545.00,3.1415172,-18.315163,-1.1008109
1421631109564.00,-3.6486626,-19.40894,-7.9613442
1421631109584.00,-6.6868944,-16.610508,-6.398145
1421631109605.00,-3.3419504,-19.17707,6.637946
1421631109624.00,-2.5062382,-15.817757,6.8662214
1421631109644.00,2.6734405,-9.230854,3.4274225
1421631109665.00,2.6087751,-6.319708,1.9718496
1421631109684.00,-0.011376343,-2.545307,1.8175205
1421631109704.00,-3.6122882,0.16989669,2.2924829
1421631109724.00,-5.823939,2.5280929,0.89962924
1421631109787.00,-5.970035,3.4384997,2.9404852
1421631109788.00,-5.096751,0.6568341,-1.676813
1421631109789.00,-1.7357904,-4.0974293,-15.102544
1421631109810.00,1.0395882,-16.888481,-18.000967
1421631109825.00,-1.9619701,-3.4030235,11.054512
1421631109846.00,-3.0178742,-6.4786777,14.637462
1421631109864.00,-10.934761,-17.522562,9.367371
1421631109884.00,-4.626579,-8.589588,7.5814342
1421631109904.00,-4.369863,-7.21784,8.009095
1421631109924.00,-3.3718882,-15.626305,10.708731
1421631109947.00,0.34937346,-19.04325,-1.0277628
1421631109964.00,6.4791265,-18.25454,-10.367441
1421631109984.00,6.8907704,-18.539995,-7.264992
1421631110004.00,5.7727456,-16.274906,-6.4545774
1421631110024.00,0.8731343,-12.70468,-10.2491865
1421631110044.00,-1.9208057,-9.543704,-7.7682457
1421631110065.00,-0.036673736,-6.954538,-6.443351
1421631110145.00,2.8383975,-3.9347177,-8.071515
1421631110146.00,3.3070729,-1.0556048,-0.57899594
1421631110148.00,1.3403128,-1.1045531,-1.0386901
1421631110149.00,0.7590715,-0.18815872,-3.0424232
1421631110167.00,-1.1487112,-2.3682253,0.21345611
1421631110185.00,0.47571075,-10.44977,-0.05882767
1421631110204.00,5.136419,-18.339113,-2.841541
1421631110224.00,-3.123854,-19.412231,-7.3334002
1421631110244.00,-6.2248054,-19.22542,-3.5121465
1421631110264.00,-4.561165,-19.147432,6.4756837
1421631110284.00,-1.6254698,-13.375436,5.595963
1421631110304.00,2.6210494,-9.952503,3.0005105
1421631110324.00,2.2511687,-6.0261683,0.48080018
1421631110348.00,-1.6976198,-1.8372793,1.5155983
1421631110364.00,-5.2663484,0.9836046,2.4554937
1421631110384.00,-7.1308713,3.3554223,2.652035
1421631110452.00,-7.2024226,3.2540832,2.7807674
1421631110452.00,-4.6830115,1.3418097,-5.8085213
1421631110453.00,-0.3713777,-7.2097573,-16.72996
1421631110464.00,3.3669484,-17.69605,-17.824633
1421631110484.00,2.1406984,-1.196911,9.587263
1421631110504.00,1.4459931,-3.7606297,16.03316
1421631110525.00,-11.86837,-16.567997,8.129745
1421631110544.00,-5.1226473,-11.606265,5.7684045
1421631110564.00,-6.443351,-5.105134,6.2104354
1421631110584.00,-7.4414754,-10.648257,8.797356
1421631110604.00,-5.9062676,-17.90786,7.300169
1421631110625.00,0.026494903,-19.338436,-4.7250743
1421631110644.00,6.6975226,-18.123562,-12.039165
1421631110665.00,7.329059,-18.77426,-6.3301864
1421631110684.00,6.401438,-14.1553135,-9.727821
1421631110753.00,3.048411,-10.259067,-9.205257
1421631110754.00,1.0333012,-8.548274,-6.794371
1421631110755.00,2.5345294,-4.946763,-6.6901875
1421631110764.00,2.5602758,-1.7857864,-2.8880942
1421631110786.00,0.69635195,-1.0820998,-1.3692027
1421631110804.00,0.105680235,-2.0061283,-2.0727396
1421631110824.00,-0.22004242,-4.4560833,1.4542259
1421631110845.00,3.3928444,-15.065271,0.6119275
1421631110864.00,1.8456619,-18.966908,-6.8960094
1421631110885.00,-5.0278945,-18.985918,-7.2407427
1421631110905.00,-2.158212,-18.958376,6.6901875
1421631110924.00,-2.4272027,-19.135307,4.9850836
1421631110944.00,0.7074289,-12.233161,4.305347
1421631110965.00,2.7363098,-8.06957,2.607278
1421631110984.00,0.74799454,-5.107978,2.5406666
1421631111006.00,-2.7045758,-1.7272582,2.7701395
1421631111081.00,-6.634653,1.5117064,2.0323238
1421631111082.00,-7.058422,3.5576518,3.1912138
1421631111084.00,-6.159541,3.4167948,2.1350102
1421631111085.00,-3.5223253,-0.67225206,-6.981033
1421631111104.00,2.2600002,-13.827645,-17.400415
1421631111125.00,3.8278399,-17.118551,-15.521972
1421631111144.00,-1.4091697,1.0464739,12.247381
1421631111164.00,-3.0852342,-5.9707837,13.197605
1421631111188.00,-12.563973,-17.490528,9.150172
1421631111204.00,-4.2092466,-9.919272,5.8212447
1421631111225.00,-4.6879516,-6.5797176,9.3289
1421631111245.00,-4.109105,-14.785054,10.334359
1421631111264.00,-2.3920257,-18.928738,1.9296373
1421631111286.00,4.133804,-18.995798,-9.000184
1421631111305.00,7.4625816,-18.804346,-7.695946
1421631111325.00,7.167994,-17.674644,-7.788454
1421631111345.00,4.107758,-12.895234,-10.308313
1421631111366.00,-1.1421249,-9.542806,-7.7483373
1421631111389.00,-0.18875748,-5.8880057,-5.990842
1421631111454.00,3.4000297,-2.7831624,-7.373068
1421631111455.00,3.403173,-1.1322455,-1.7142352
1421631111457.00,1.5582596,-1.0729687,-1.8047969
1421631111468.00,0.16166382,-1.6705261,-1.4438974
1421631111485.00,-0.060623933,-4.4445577,3.100802
1421631111504.00,3.2939003,-14.895076,2.0498374
1421631111525.00,1.3615686,-18.943707,-8.457263
1421631111545.00,-3.9700441,-18.910175,-6.4454465
1421631111564.00,-2.1287234,-19.253712,5.652246
1421631111585.00,-3.5440302,-17.35536,5.2355127
1421631111604.00,0.07903565,-11.899505,3.1085856
1421631111624.00,2.3682253,-7.2778654,1.7539028
1421631111645.00,-0.019309845,-3.4826577,2.7550209
1421631111665.00,-3.1644197,-0.19414628,3.3311727
1421631111685.00,-6.6012726,2.9186306,2.4625292
1421631111707.00,-6.796467,4.4228525,2.6897566
1421631111773.00,-5.2283278,2.703079,0.72898406
1421631111774.00,-2.648143,-1.4970369,-8.19905
1421631111775.00,3.137775,-14.5718975,-17.687368
1421631111785.00,4.9029045,-13.52243,-6.615044
1421631111805.00,-0.4897815,0.7348219,14.704672
1421631111825.00,-3.891308,-11.62782,12.757371
1421631111845.00,-9.778565,-18.318756,5.716313
1421631111876.00,-4.6378055,-6.4295797,2.4662714
1421631111887.00,-6.971303,-6.5277753,8.005203
1421631111904.00,-6.013894,-15.401024,9.495055
1421631111925.00,-4.5339217,-18.861677,2.0378623
1421631111945.00,2.6800268,-18.50512,-8.020621
1421631111964.00,6.628965,-18.465601,-7.9101505
1421631111985.00,7.3019657,-16.728613,-7.551197
1421631112005.00,5.6247034,-11.793674,-9.827663
1421631112025.00,1.4168037,-8.75679,-6.445147
1421631112085.00,2.0628603,-6.668932,-6.9980974
1421631112086.00,5.3322115,-4.2505608,-8.98297
1421631112087.00,4.414021,-2.3031106,-1.0963202
1421631112107.00,1.1514057,-1.5564634,0.48199767
1421631112127.00,-0.067060545,-1.2281959,-1.1367362
1421631112144.00,-0.55639297,-3.4554145,2.0282822
1421631112165.00,3.878734,-15.229031,-0.1619632
1421631112185.00,4.577631,-18.989212,-7.0965924
1421631112205.00,-4.15012,-19.500698,-6.80934
1421631112225.00,-3.1472054,-19.45639,7.3356457
1421631112246.00,-2.9059072,-18.21667,3.8776863
1421631112265.00,0.008981323,-12.873679,2.9797037
1421631112287.00,2.98629,-8.929681,1.5052698
1421631112307.00,0.66252226,-5.640271,2.0112176
1421631112326.00,-2.8190877,-2.1996758,2.2628443
1421631112347.00,-6.2445645,0.7388635,1.7031583
1421631112420.00,-7.4944654,3.2467484,1.3385166
1421631112422.00,-7.1163516,2.171684,1.7317488
1421631112423.00,-3.6943176,-1.4250367,-2.1725821
1421631112432.00,2.4926167,-9.796228,-14.895076
1421631112445.00,5.339546,-18.250198,-18.911673
1421631112464.00,1.4561719,-5.853428,3.509003
1421631112485.00,-2.1040246,-6.771918,12.754827
1421631112504.00,-9.990674,-17.562677,9.851613
1421631112525.00,-7.9288616,-7.0407586,9.094039
1421631112545.00,-8.216264,-3.6327956,8.870105
1421631112564.00,-6.9443593,-13.244608,11.06993
1421631112585.00,-3.3715887,-18.719173,2.577041
1421631112605.00,3.8203554,-18.260078,-12.689113
1421631112625.00,6.499634,-14.759458,-0.78751236
1421631112644.00,6.2445645,-17.998123,-3.6262093
1421631112714.00,5.9459352,-17.078585,-9.198222
1421631112715.00,2.7613077,-12.069402,-11.508518
1421631112716.00,1.1030562,-9.841584,-6.9335814
1421631112729.00,1.9166144,-7.1638026,-7.2208343
1421631112745.00,2.9430299,-3.7015028,-6.16478
1421631112765.00,2.481839,-1.4235398,-1.5736775
1421631112785.00,2.0257375,-2.2537134,-2.7878027
1421631112805.00,0.50385225,-1.549877,-0.78242296
1421631112826.00,0.17229171,-6.1987596,1.8021026
1421631112850.00,4.452491,-16.909286,0.96145064
1421631112879.00,0.24863297,-19.217787,-6.7792525
1421631112886.00,-4.247717,-19.033968,-5.537435
1421631112905.00,-2.1200414,-19.384838,8.072114
1421631112924.00,-2.40445,-17.921482,6.05416
1421631112945.00,1.1029065,-11.376193,3.187771
1421631112965.00,3.3434472,-8.442893,2.224075
1421631112987.00,0.37601808,-5.1485434,2.938689
1421631113052.00,-3.0883777,-1.2440629,3.3449442
1421631113053.00,-6.5554676,2.1865032,1.1226654
1421631113054.00,-7.7712398,3.9544766,1.0753638
1421631113065.00,-6.7629366,2.3444247,1.1090437
1421631113085.00,-3.3450937,-0.87403244,-6.165379
1421631113104.00,1.0615925,-12.380156,-16.880997
1421631113125.00,3.8152661,-16.449593,-13.057946
1421631113145.00,-0.29279113,-1.4415023,12.488081
1421631113166.00,-2.692002,-10.806028,11.7930765
1421631113188.00,-9.578431,-18.387463,6.041137
1421631113205.00,-3.2320788,-6.348149,5.754334
1421631113224.00,-5.263654,-6.6641417,8.940608
1421631113245.00,-5.2471886,-13.196558,10.406959
1421631113265.00,-4.270769,-18.63849,1.5374528
1421631113285.00,3.1925611,-18.820961,-6.866521
1421631113305.00,7.800279,-17.016464,-4.342919
1421631113378.00,7.2506223,-18.596727,-4.1165895
1421631113379.00,5.7160134,-15.490687,-7.9107494
1421631113381.00,2.6508377,-11.379786,-10.622959
1421631113392.00,2.3692732,-9.878108,-7.2121525
1421631113405.00,1.7284557,-5.9378524,-7.327113
1421631113425.00,3.5081048,-3.1840289,-5.97258
1421631113445.00,2.956502,-0.8140073,-0.3185376
1421631113465.00,1.2340338,-1.5937358,-1.6087047
1421631113485.00,-0.017363891,-0.56881714,-2.14953
1421631113505.00,-0.48379394,-4.639452,1.4754817
1421631113525.00,3.5548077,-15.993641,0.5983058
1421631113545.00,2.877616,-19.093245,-6.6958756
1421631113566.00,-4.389921,-19.514769,-6.2369304
1421631113587.00,-4.378545,-19.491568,4.9671206
1421631113606.00,-3.9863603,-18.98472,4.0290217
1421631113626.00,-0.41508684,-13.5836525,4.426894
1421631113646.00,2.9475205,-10.193203,1.6645386
1421631113666.00,0.83032334,-5.8905506,2.0977378
1421631113727.00,-2.6316774,-1.8145267,2.5589287
1421631113728.00,-5.5750065,1.3019925,0.9621991
1421631113729.00,-7.779173,3.7645216,0.6885681
1421631113744.00,-7.487729,4.141438,2.0859122
1421631113765.00,-5.270989,1.3814772,-2.1835093
1421631113785.00,-1.2910652,-5.056934,-14.7390995
1421631113805.00,3.5598972,-17.40326,-16.678318
1421631113825.00,2.1763244,-3.622467,8.071964
1421631113845.00,1.4968872,-5.019961,16.217127
1421631113865.00,-8.763825,-17.327517,7.3703732
1421631113885.00,-4.2273593,-11.132949,6.3709016
1421631113905.00,-4.7325587,-5.0983977,6.394552
1421631113933.00,-5.988896,-11.38248,8.182584
1421631113946.00,-4.8575487,-17.85981,6.0781107
1421631113966.00,-1.1115885,-19.346968,-1.4895525
1421631114041.00,5.7423587,-16.963326,-11.641292
1421631114042.00,7.4515047,-18.29316,-6.4286814
1421631114044.00,6.095175,-14.328204,-8.868458
1421631114045.00,2.9581485,-10.892099,-8.432864
1421631114065.00,1.7949175,-8.928034,-6.632857
1421631114085.00,4.230353,-5.4247193,-8.841064
1421631114105.00,5.1841693,-2.5584795,-4.24128
1421631114124.00,1.3727952,-1.2181668,2.065854
1421631114145.00,-0.520318,-0.79963714,-0.79260176
1421631114166.00,-2.3355932,-0.98764616,-1.6961229
1421631114185.00,-2.08217,-7.632029,-1.6982186
1421631114205.00,4.503535,-17.642313,-2.8512707
1421631114227.00,-1.2808864,-19.317478,-7.307953
1421631114246.00,-5.3703823,-18.295704,-4.9653244
1421631114265.00,-4.376449,-19.372564,5.5049524
1421631114285.00,-1.5979271,-17.175283,4.826264
1421631114305.00,3.6088455,-9.544751,2.4611819
1421631114378.00,3.4405951,-7.32382,0.9421408
1421631114380.00,-0.642464,-4.026477,2.4056475
1421631114380.00,-5.513634,0.32587233,4.255351
1421631114390.00,-8.086783,4.330345,2.1049228
1421631114405.00,-7.5519457,6.248157,2.339036
1421631114425.00,-4.865033,2.542014,-2.1094134
1421631114445.00,1.1229647,-4.3941126,-13.092673
1421631114470.00,6.317313,-17.113611,-18.672022
1421631114485.00,0.7493417,-5.921985,4.9672704
1421631114505.00,-1.843267,-2.916086,15.827637
1421631114525.00,-10.527009,-16.498093,8.454719
1421631114545.00,-6.037994,-15.699503,0.73572004
1421631114565.00,-4.0803647,-2.156865,3.341651
1421631114585.00,-6.7379384,-5.851482,9.688004
1421631114606.00,-3.8423598,-16.74927,15.32109
1421631114625.00,-0.32632142,-19.195932,1.0092014
1421631114685.00,7.108867,-15.45087,-13.235926
1421631114686.00,7.07863,-16.60961,-3.9594164
1421631114687.00,5.7808285,-17.269888,-4.676126
1421631114705.00,4.155209,-13.175751,-11.434871
1421631114725.00,0.6930588,-10.171349,-9.668544
1421631114745.00,0.8840616,-7.1733828,-6.3325815
1421631114765.00,2.4463627,-3.9109173,-8.337961
1421631114786.00,2.8683352,-1.585503,-0.6730005
1421631114807.00,1.805695,-0.83795744,-0.86220706
1421631114826.00,1.2566369,-1.131497,-3.1385233
1421631114845.00,0.42541534,-4.09698,1.2281959
1421631114865.00,3.3500335,-14.57564,0.30835876
1421631114885.00,3.9303768,-18.900297,-4.885241
1421631114905.00,-3.608546,-19.398312,-6.5373554
1421631114925.00,-4.744234,-19.103874,1.3781841
1421631114992.00,-3.5290613,-19.516266,5.486541
1421631114993.00,0.6673123,-13.5764675,3.7995489
1421631114994.00,3.059787,-8.832683,1.9580781
1421631115006.00,1.4096187,-5.8953404,1.7251625
1421631115025.00,-1.7962646,-2.5475523,2.7623556
1421631115045.00,-5.346881,0.6518944,2.09669
1421631115065.00,-7.1645513,3.286865,1.0597961
1421631115085.00,-7.404802,3.2745905,2.2007236
1421631115107.00,-5.2989807,0.57570285,-2.3016138
1421631115127.00,-0.7259903,-6.686445,-14.126723
1421631115145.00,3.0499077,-17.649647,-18.545385
1421631115166.00,0.5131329,-4.047134,7.2874455
1421631115186.00,-1.0927277,-2.3574476,13.191618
1421631115205.00,-9.436676,-16.7349,8.594677
1421631115225.00,-5.4206777,-11.382629,3.3837135
1421631115245.00,-4.380491,-4.13081,6.6493225
1421631115265.00,-2.982997,-13.579311,10.516531
1421631115351.00,0.20716919,-18.747913,6.772666
1421631115352.00,3.7745507,-19.362535,-9.65148
1421631115353.00,6.7753606,-16.079712,-1.6461269
1421631115354.00,5.3111057,-17.463285,-3.2163615
1421631115365.00,4.893923,-16.521444,-5.840405
1421631115385.00,-0.22707778,-12.489578,-14.119838
1421631115405.00,-0.95695996,-9.873169,-9.226962
1421631115425.00,0.71626055,-6.565497,-5.278024
1421631115445.00,2.9321027,-3.218008,-6.8627787
1421631115465.00,4.0818615,-0.8313711,-1.6359481
1421631115485.00,2.6246421,-2.1463866,-1.0234218
1421631115505.00,1.0761123,-1.3292358,-1.2020004
1421631115525.00,0.35206786,-4.7853985,0.7165599
1421631115547.00,3.3235388,-15.60475,-0.8827144
1421631115566.00,1.0214758,-19.040257,-5.640271
1421631115586.00,-5.7972946,-19.492466,-4.8964677
1421631115680.00,-4.779112,-19.428549,3.5362463
1421631115681.00,-1.3150154,-19.229313,5.7208037
1421631115682.00,2.5797355,-13.420193,4.903503
1421631115683.00,3.9496865,-8.955128,1.6581019
1421631115693.00,1.7741107,-6.0103016,2.0366647
1421631115705.00,-1.4561719,-2.658771,3.3669484
1421631115725.00,-5.144502,0.8589139,1.7362394
1421631115746.00,-7.7960877,3.8733454,-0.36688706
1421631115768.00,-8.255632,4.034111,1.76483
1421631115793.00,-6.1794496,0.17812958,-0.70683014
1421631115805.00,0.082478486,-3.7932618,-11.602373
1421631115825.00,3.0937665,-16.16758,-18.472935
1421631115845.00,3.7967048,-11.492202,-2.3990612
1421631115866.00,-1.5693365,-2.6228456,13.900843
1421631115886.00,-10.158325,-16.964373,7.1106634
1421631115908.00,-6.2289968,-11.159444,6.9262466
1421631115974.00,-6.3068347,-2.7848089,8.443642
1421631115975.00,-5.512437,-12.083323,11.751613
1421631115976.00,-2.0823197,-18.557959,8.455915
1421631115986.00,4.6186457,-19.44202,-14.602434
1421631116005.00,8.076455,-15.412101,-0.7180568
1421631116025.00,6.0079064,-16.65736,-3.4757721
1421631116046.00,5.606591,-17.531393,-8.50172
1421631116065.00,0.8393047,-13.367802,-12.2151985
1421631116086.00,-1.2458593,-9.0406,-8.357121
1421631116105.00,0.655936,-6.8642755,-6.830147
1421631116125.00,2.4495063,-3.2304323,-6.108647
1421631116145.00,2.8283684,-1.2358301,-2.498155
1421631116165.00,2.1204903,-1.3290862,-2.0892055
1421631116185.00,0.56881714,-1.873504,-1.7777033
1421631116205.00,0.10074051,-4.5307784,1.4377601
1421631116225.00,2.7117608,-15.236964,-0.6655161
1421631116245.00,1.2084371,-18.99026,-5.651498
1421631116265.00,-5.724845,-19.184706,-6.195766
1421631116329.00,-3.513344,-19.368374,1.8953586
1421631116330.00,-2.1797671,-18.724562,4.946913
1421631116331.00,1.0234218,-13.386213,3.748954
1421631116348.00,2.6358688,-9.702673,1.9089803
1421631116365.00,1.0346484,-6.5940876,1.8482066
1421631116386.00,-1.8842816,-3.0897248,2.647694
1421631116405.00,-4.851711,0.19968475,1.8512005
1421631116425.00,-6.8264046,2.364932,0.3302133
1421631116445.00,-7.654632,3.9396574,1.8616786
1421631116465.00,-5.72724,1.6350499,0.8608598
1421631116486.00,-0.57794815,-1.9619701,-8.804241
1421631116505.00,4.726122,-16.337925,-18.092278
1421631116526.00,3.4560132,-8.419392,1.3662089
1421631116545.00,-1.5072157,1.217568,14.988781
1421631116565.00,-9.310938,-15.408209,8.860075
1421631116585.00,-6.2096868,-15.904876,2.7651997
1421631116641.00,-3.7073405,-4.0853047,6.1010127
1421631116642.00,-4.0381527,-11.134746,10.692565
1421631116652.00,-2.090403,-17.883013,8.347691
1421631116666.00,2.5517435,-19.350111,-7.4634795
1421631116685.00,7.479646,-16.14782,-3.282075
1421631116705.00,5.891299,-17.524956,-4.687203
1421631116725.00,5.2000365,-17.158518,-6.478079
1421631116745.00,-0.30596375,-13.048216,-13.426629
1421631116765.00,-1.257984,-10.120155,-10.12255
1421631116786.00,0.77164537,-7.4178247,-6.335575
1421631116805.00,2.8291168,-3.2973433,-6.817872
1421631116826.00,3.8140686,-0.13741425,-1.1996055
1421631116845.00,2.6806257,-1.1276051,-1.2820839
1421631116865.00,0.51747394,-1.1931688,-0.5095404
1421631116885.00,0.27827132,-4.3349853,2.2040167
1421631116905.00,3.5669324,-15.2577715,0.52316207
1421631116966.00,1.7113911,-18.993103,-5.768704
1421631116967.00,-5.782924,-19.425854,-6.414012
1421631116968.00,-5.516179,-19.486328,-0.86445236
1421631116988.00,-2.8045678,-18.921103,6.837781
1421631117007.00,0.468376,-14.853013,5.151238
1421631117025.00,3.0582902,-10.779833,2.5875192
1421631117045.00,1.103655,-7.3274126,1.883084
1421631117065.00,-1.7886305,-3.1424153,2.8036697
1421631117085.00,-4.819228,0.3118016,2.3402336
1421631117106.00,-6.678961,3.522475,1.0683284
1421631117125.00,-7.158414,4.0694375,1.7058526
1421631117146.00,-5.274282,0.94139236,-2.2261705
1421631117165.00,0.34188902,-3.3922458,-14.2816515
1421631117185.00,2.5394692,-17.022602,-18.828146
1421631117205.00,2.2391937,-6.2906685,5.0156198
1421631117225.00,-0.5147795,-2.7527757,15.390545
1421631117286.00,-9.763447,-16.237783,8.274194
1421631117287.00,-6.1393332,-13.643079,5.5592895
1421631117288.00,-5.3780165,-5.7299347,6.774612
1421631117307.00,-5.2630553,-12.587474,10.094559
1421631117325.00,-3.2611184,-18.276545,5.3212843
1421631117345.00,2.458787,-19.4037,-7.844138
1421631117365.00,8.039183,-17.092806,-2.8045678
1421631117385.00,6.923852,-18.489101,-5.134323
1421631117405.00,5.9483304,-17.536333,-7.4607854
1421631117425.00,1.5509248,-12.9612465,-11.503578
1421631117445.00,-0.48124924,-9.895622,-8.659942
1421631117466.00,0.39697447,-7.0510874,-6.588549
1421631117486.00,2.0240908,-3.336412,-6.4613137
1421631117507.00,2.655927,-0.14819184,-1.1789484
1421631117527.00,1.7504599,0.68273026,-1.1246114
1421631117545.00,-0.044607237,-1.0927277,-3.2614179
1421631117632.00,-0.6146219,-4.3773475,-0.11376343
1421631117633.00,2.5355773,-14.779816,-1.019979
1421631117634.00,2.9606931,-18.92799,-4.1233253
1421631117635.00,-4.2061033,-19.32676,-5.88112
1421631117645.00,-3.400778,-19.463724,1.0804532
1421631117665.00,-1.9261944,-18.79776,4.91937
1421631117685.00,0.3821553,-14.692547,5.6401215
1421631117705.00,3.1130762,-10.970686,2.737208
1421631117726.00,1.6262183,-7.083869,1.9245479
1421631117745.00,-1.2040961,-3.309468,2.5218058
1421631117766.00,-4.9455657,0.20686981,2.9466224
1421631117786.00,-7.0941978,2.3137386,0.8321196
1421631117805.00,-7.295529,3.3766782,1.9947519
1421631117830.00,-6.131849,0.41403902,-0.732876
1421631117848.00,-2.4526496,-2.988685,-12.985796
1421631117867.00,1.6337028,-15.838115,-18.651962
1421631117951.00,1.7164806,-7.1934414,2.392475
1421631117952.00,-0.62225604,0.80846876,14.558426
1421631117953.00,-8.270152,-14.501544,8.501571
1421631117954.00,-6.2415705,-16.801212,2.6291327
1421631117965.00,-2.5180635,-4.4258466,4.8532076
1421631117985.00,-2.7702892,-10.507998,8.639733
1421631118005.00,-2.1877007,-16.43193,8.854687
1421631118025.00,-0.73347473,-19.097437,-1.4552737
1421631118046.00,6.1049047,-17.267792,-4.4840755
1421631118065.00,7.1359606,-17.739012,-5.6727533
1421631118094.00,6.2213626,-17.378262,-5.949827
1421631118106.00,2.0910017,-14.200969,-11.546539
1421631118126.00,-0.4869374,-10.898686,-10.644216
1421631118145.00,1.2033477,-8.177944,-7.156318
1421631118166.00,3.3278797,-3.7651205,-6.7181797
1421631118187.00,4.030818,-0.81565386,-1.3961467
1421631118268.00,1.9173628,-0.7234456,-0.020657044
1421631118269.00,0.694406,-1.0618918,-2.7586133
1421631118270.00,-0.7382648,-4.038602,-0.3502716
1421631118271.00,2.0957918,-14.63806,-0.44502458
1421631118285.00,2.9900322,-18.908829,-4.3762994
1421631118305.00,-4.4008484,-19.203716,-5.844147
1421631118325.00,-2.6238935,-18.905087,-1.8814375
1421631118345.00,-2.2487736,-18.02357,3.39015
1421631118365.00,1.1859838,-14.059663,4.631369
1421631118385.00,3.8487964,-10.279424,3.598517
1421631118405.00,1.9143691,-6.5883994,2.3743625
1421631118425.00,-1.4319223,-3.468587,1.8529967
1421631118446.00,-5.696105,-0.48828462,2.3989115
1421631118465.00,-7.627389,1.9450552,0.739612
1421631118486.00,-7.8146496,3.4142501,0.4046086
1421631118505.00,-5.8517814,0.821342,-3.2207024
1421631118525.00,-1.5560143,-3.1702573,-11.527529
1421631118586.00,1.7229172,-13.549074,-18.232235
1421631118586.00,0.4540059,-5.853278,0.3851491
1421631118587.00,-1.0550061,0.81131285,13.60431
1421631118605.00,-7.194489,-14.390026,8.3587675
1421631118626.00,-5.5360875,-18.559006,0.7081773
1421631118645.00,-0.28186387,-4.392765,5.6401215
1421631118665.00,-3.0111382,-5.3417916,8.4801655
1421631118689.00,-2.7074199,-13.394746,12.607233
1421631118711.00,-2.3272104,-18.699265,2.3366408
1421631118726.00,4.315526,-17.574055,-8.244555
1421631118745.00,7.30451,-15.796202,-4.796625
1421631118765.00,6.3700037,-17.755777,-4.192332
1421631118786.00,4.102818,-14.446758,-7.760163
1421631118806.00,-0.20058289,-10.582244,-9.369017
1421631118825.00,-0.18067428,-7.669451,-7.3437285
1421631118846.00,2.2080584,-5.3956795,-8.142318
1421631118865.00,4.3954597,-2.5938063,-5.740862
1421631118928.00,3.5836976,-0.86834425,1.1630814
1421631118929.00,1.5361056,-1.1350895,-0.41074586
1421631118930.00,0.5510042,-2.2839506,-1.3820759
1421631119092.00,1.4099181,-10.287208,-1.7277073
1421631119096.00,4.8364425,-18.212477,-1.4061759
1421631119098.00,-3.5102005,-19.395018,-6.1391835
1421631119098.00,-5.3399954,-18.62442,-2.165846
1421631119099.00,-1.1118878,-19.451002,5.694608
1421631119101.00,-1.6551082,-16.69104,4.906497
1421631119102.00,2.2758672,-12.145294,3.132536
1421631119103.00,1.9453546,-8.882528,1.593137
1421631119115.00,0.04819977,-5.408852,2.9038115
1421631119126.00,-3.3699422,-1.1922706,3.7155733
1421631119153.00,-6.218668,1.8597326,1.7440233
1421631119166.00,-7.4034543,4.234694,0.34173936
1421631119186.00,-6.258036,3.0355375,0.87088895
1421631119250.00,-3.1346314,-0.55384827,-6.0394907
1421631119253.00,2.0263362,-10.509795,-16.376545
1421631119254.00,4.798721,-15.768209,-12.327615
1421631119266.00,-0.21839584,-7.155121,12.860506
1421631119286.00,-4.2598414,-16.12417,8.960965
1421631119311.00,-7.136859,-13.86357,6.440507
1421631119326.00,-7.220984,-3.3310232,7.349716
1421631119348.00,-8.022118,-5.75613,9.679621
1421631119370.00,-4.7237267,-15.75878,13.125456
1421631119386.00,-0.6755452,-19.061213,0.081430666
1421631119406.00,4.904102,-16.216377,-9.59834
1421631119426.00,6.121221,-14.064603,-0.2615062
1421631119445.00,4.575236,-17.953516,-3.7863762
1421631119466.00,3.8872664,-17.659826,-7.2399945
1421631119486.00,2.9837453,-12.775333,-11.484568
1421631119505.00,2.988236,-10.4671335,-6.8662214
1421631119589.00,1.7160316,-7.024892,-6.983428
1421631119590.00,3.3061748,-3.2150145,-9.099129
1421631119592.00,3.3673975,-0.5536986,0.35102004
1421631119593.00,1.0707234,-0.9702823,-0.17289047
1421631119606.00,0.6791377,-1.8050963,-1.7283059
1421631119626.00,0.9696835,-9.783356,-2.2975721
1421631119645.00,4.8837442,-18.110239,0.4831952
1421631119666.00,-3.6068995,-19.381096,-6.119724
1421631119686.00,-4.4960504,-18.180742,-4.4006987
1421631119707.00,-2.08217,-19.323317,5.025649
1421631119725.00,-2.1727319,-18.48087,5.2136583
1421631119745.00,2.9066556,-12.927268,2.2097049
1421631119765.00,3.1597793,-9.0325165,2.4379802
1421631119786.00,0.3649411,-5.3088603,3.0240116
1421631119806.00,-2.7265801,-2.3595433,4.1399407
1421631119825.00,-5.864505,1.212778,2.3156846
1421631119889.00,-8.120314,4.793931,-1.0382409
1421631119890.00,-8.192314,5.9442887,-0.55010605
1421631119891.00,-5.1385145,2.191443,-1.859583
1421631119911.00,0.44128236,-4.8985634,-10.012379
1421631119925.00,5.447472,-16.197067,-18.087337
1421631119946.00,2.8472292,-11.129057,-2.554438
1421631119966.00,-1.959575,-6.324648,13.686639
1421631119986.00,-9.954899,-17.409996,7.8615017
1421631120006.00,-6.5741787,-13.686639,4.266428
1421631120026.00,-5.282515,-2.4495063,6.4167066
1421631120045.00,-6.8536477,-6.272706,9.80012
1421631120066.00,-3.7290454,-16.47459,15.640376
1421631120085.00,0.040565643,-19.15851,1.6320561
1421631120106.00,7.4077954,-18.0336,-14.144087
1421631120127.00,8.263566,-15.069014,-2.2135968
1421631120146.00,7.585326,-17.687368,-4.0532713
1421631120216.00,5.859565,-14.515165,-11.700418
1421631120217.00,0.30820906,-11.749367,-10.855276
1421631120218.00,-0.7580237,-7.6531353,-6.408174
1421631120231.00,1.5055691,-3.9766304,-8.0299015
1421631120246.00,3.6928208,-1.7747095,-7.1702394
1421631120266.00,0.97492266,-1.5096108,1.0327024
1421631120286.00,-0.008382568,-1.239722,2.10627
1421631120306.00,0.19758911,-0.28859985,0.3183879
1421631120325.00,0.9397458,-5.2284775,-0.37826338
1421631120346.00,5.0976496,-16.798069,-2.826722
1421631120366.00,1.4048287,-19.202667,-5.9183927
1421631120385.00,-3.2051349,-18.108294,-5.5413265
1421631120406.00,-0.8186476,-19.22572,7.9766126
1421631120426.00,0.001796265,-17.61432,3.3563204
1421631120446.00,3.7992494,-13.662988,2.9861403
1421631120466.00,4.4382706,-11.540401,2.2146447
1421631120486.00,0.7759863,-8.542136,2.1124072
1421631120557.00,-3.6735108,-3.7396734,3.1725028
1421631120557.00,-6.531218,-0.006286926,1.5004797
1421631120558.00,-7.730674,2.9666808,-1.6491207
1421631120576.00,-6.976991,3.2919543,-0.02469864
1421631120586.00,-4.3026524,0.30311966,-1.703757
1421631120606.00,-0.4326004,-5.844446,-9.262139
1421631120626.00,5.0928593,-16.634607,-18.022522
1421631120646.00,3.725453,-5.9757233,1.5958314
1421631120666.00,-0.17154327,0.43080413,13.084889
1421631120685.00,-7.7901006,-13.632601,9.237142
1421631120706.00,-6.602171,-16.905994,-0.88735473
1421631120726.00,-2.6226962,-3.6771035,1.8522482
1421631120746.00,-4.0920405,-4.555028,8.659343
1421631120766.00,-3.9854622,-11.905493,13.515843
1421631120786.00,-2.9638367,-18.537151,6.1436744
1421631120808.00,2.721341,-17.786911,-6.072273
1421631120868.00,7.874525,-15.626754,-8.058343
1421631120869.00,6.9567833,-18.010548,-4.7897396
1421631120870.00,4.4921584,-12.709171,-9.076226
1421631120886.00,1.7562977,-10.615175,-9.769434
1421631120906.00,1.9603235,-8.032895,-7.1838613
1421631120926.00,4.4791355,-4.870422,-9.664054
1421631120946.00,5.3789144,-2.2881417,-3.077151
1421631120971.00,2.3352938,-2.5253985,1.674418
1421631120991.00,0.22528152,-1.3427079,-0.4487668
1421631121006.00,-0.38544846,-2.899171,1.0925779
1421631121025.00,2.9530592,-14.849421,-1.4947915
1421631121046.00,3.206931,-18.937569,-4.7499223
1421631121066.00,-4.4180627,-19.493662,-6.671776
1421631121086.00,-5.4827986,-19.539167,-1.3835728
1421631121106.00,-3.4211357,-19.575394,3.4864
1421631121126.00,-0.6331833,-16.216377,4.168681
1421631121146.00,2.040407,-10.09845,1.6363971
1421631121197.00,0.43454635,-7.123387,2.3306534
1421631121200.00,-1.9212548,-3.203189,3.0018575
1421631121209.00,-4.7268705,0.060025178,2.8041189
1421631121226.00,-7.0235443,2.5767417,0.9032217
1421631121246.00,-6.992559,4.7180386,0.96175003
1421631121266.00,-4.9244595,2.7144554,-1.3548326
1421631121286.00,-0.52346146,-2.2941294,-11.243718
1421631121309.00,4.1257205,-13.758638,-18.413958
1421631121331.00,1.7636325,-7.3262153,1.420995
1421631121346.00,-0.25956023,-9.175769,14.913787
1421631121367.00,-7.2441854,-18.165773,7.5877213
1421631121386.00,-4.253555,-9.578133,3.1966026
1421631121407.00,-6.099366,-2.7282267,7.874824
1421631121429.00,-6.8389783,-8.874894,12.583432
1421631121446.00,-3.4432898,-17.842148,11.323203
1421631121466.00,1.513353,-19.344572,-4.966971
1421631121486.00,7.424261,-16.0131,-11.418555
1421631121555.00,7.16036,-17.322428,-4.5517344
1421631121556.00,6.681356,-15.076498,-5.903873
1421631121557.00,3.8895118,-12.246932,-9.45883
1421631121567.00,2.0260367,-9.403445,-7.6050854
1421631121587.00,2.9928763,-6.5973806,-8.053702
1421631121606.00,4.288432,-3.3449442,-5.8944426
1421631121626.00,2.1624033,-1.7753083,-0.11720627
1421631121646.00,0.60683805,-1.6920813,-1.3771362
1421631121666.00,0.17139359,-1.7797989,0.15313156
1421631121686.00,0.97058165,-10.403516,-3.4988241
1421631121706.00,2.942581,-18.332827,-3.0355375
1421631121726.00,-4.0222855,-19.411333,-7.9623923
1421631121746.00,-3.600463,-19.002983,-1.2252022
1421631121766.00,-2.5795858,-19.502495,6.4041324
1421631121786.00,2.2776635,-15.385756,4.0499783
1421631121847.00,4.412674,-9.213341,1.8064435
1421631121848.00,2.5146208,-6.358927,2.5735981
1421631121850.00,-1.1144326,-3.0244606,3.458109
1421631121866.00,-6.6907864,0.20402573,2.7773244
1421631121886.00,-9.289233,3.2033386,0.61537033
1421631121906.00,-8.397238,4.7692323,2.3281088
1421631121927.00,-6.1319985,3.384013,-0.06780899
1421631121946.00,-0.4752617,-2.2182372,-10.264455
1421631121966.00,4.748126,-13.105397,-18.236427
1421631121987.00,0.8089178,-7.322024,4.345314
1421631122010.00,-1.7551003,-10.09396,15.744859
1421631122026.00,-6.4652057,-18.290615,7.646848
1421631122047.00,-1.833088,-9.2504635,0.033230897
1421631122065.00,-2.7798693,-2.8536658,7.3034625
1421631122086.00,-3.9140606,-9.710756,11.178305
1421631122106.00,-2.084715,-17.929415,7.6544824
1421631122177.00,2.9885354,-19.341429,-3.4181418
1421631122178.00,7.175778,-15.890356,-5.86181
1421631122179.00,6.674171,-17.022602,-4.6692405
1421631122190.00,5.1980906,-14.907799,-7.1838613
1421631122207.00,0.67135394,-11.746673,-10.64661
1421631122226.00,0.17588425,-9.013506,-6.592591
1421631122246.00,2.4360342,-6.4676003,-8.457263
1421631122266.00,4.522096,-3.8740938,-6.2842317
1421631122286.00,2.6301806,-2.0152593,1.221909
1421631122306.00,0.62480074,-1.2569362,-0.4272116
1421631122326.00,-0.60144925,-1.7332457,-0.57899594
1421631122346.00,-0.102536775,-9.060958,-0.5445676
1421631122366.00,4.9657736,-18.102905,-1.9426602
1421631122386.00,-3.646118,-19.380049,-6.4536796
1421631122407.00,-6.205496,-19.193388,-2.780468
1421631122426.00,-2.9741652,-19.52839,7.413334
1421631122513.00,0.2230362,-15.880177,4.1103024
1421631122514.00,2.5656648,-10.515333,2.3757098
1421631122515.00,1.357527,-6.8023047,2.2116508
1421631122516.00,-1.9916084,-3.9061272,2.7026298
1421631122528.00,-5.276078,-0.445773,2.473606
1421631122546.00,-7.633975,3.0428724,0.27108628
1421631122566.00,-7.6920543,5.2672467,0.33904496
1421631122588.00,-5.1245933,4.7937813,-0.5373825
1421631122609.00,-0.6686595,1.6747174,-7.335496
1421631122626.00,4.612658,-8.738379,-17.084871
1421631122646.00,2.5984466,-6.8918185,-7.5444613
1421631122666.00,-2.2305117,-2.6276357,11.809392
1421631122686.00,-7.2393956,-16.45633,13.5080595
1421631122707.00,-5.4143906,-18.343454,-4.725972
1421631122727.00,-2.3793023,-1.2241544,-0.4206253
1421631122748.00,-5.2997293,-3.9175036,10.138118
1421631122772.00,-2.3022125,-15.336957,18.079103
1421631122836.00,-0.042062532,-19.003881,3.3260834
1421631122837.00,6.1819944,-17.029188,-11.908337
1421631122839.00,8.148306,-16.106655,-2.8602521
1421631122848.00,7.26619,-17.56627,-3.4992733
1421631122866.00,5.365293,-13.812976,-9.234447
1421631122886.00,2.2680836,-9.864187,-11.393407
1421631122906.00,1.3584251,-8.390951,-6.2821364
1421631122926.00,2.8334577,-6.329887,-8.229437
1421631122946.00,3.9992335,-3.9255867,-5.3461328
1421631122966.00,3.4802628,-1.977388,0.556842
1421631122986.00,1.886527,-1.6991167,-1.0127939
1421631123006.00,-0.36973113,-0.9871971,-1.8200651
1421631123027.00,-1.2247531,-6.0179358,-0.5019063
1421631123046.00,3.3278797,-16.824413,-1.9896625
1421631123066.00,-0.34413436,-19.20611,-5.8026834
1421631123130.00,-5.690866,-19.280207,-5.26575
1421631123131.00,-3.4889448,-19.498753,4.825216
1421631123132.00,-1.0166858,-19.26898,3.9344184
1421631123146.00,2.4574397,-16.060102,4.4108777
1421631123167.00,3.0428724,-10.684482,1.5612533
1421631123186.00,0.83152086,-7.996521,2.2501209
1421631123206.00,-2.124083,-3.4988241,1.6251705
1421631123226.00,-5.738916,0.78721297,0.3900888
1421631123246.00,-8.091574,3.953279,-2.9981153
1421631123266.00,-8.469687,4.768783,-2.9273126
1421631123287.00,-4.2685237,2.4604335,0.4682263
1421631123307.00,0.29668304,-2.5724006,-6.0227256
1421631123326.00,7.8150983,-12.945979,-17.13876
1421631123346.00,2.8369007,-6.762038,1.2522959
1421631123366.00,-4.6840596,-9.426048,11.175461
1421631123387.00,-7.1787715,-15.819553,8.913065
1421631123406.00,-7.192992,-11.58935,5.7284374
1421631123426.00,-6.0872416,-6.9590287,6.2902193
1421631123488.00,-3.3533268,-13.917608,10.889854
1421631123489.00,1.6325052,-18.79731,6.3643155
1421631123489.00,6.9711533,-18.479671,-10.327923
1421631123506.00,7.9986167,-15.498172,-1.5088623
1421631123526.00,5.6025496,-17.998123,-2.0905526
1421631123546.00,5.7992406,-18.74447,-5.6336846
1421631123567.00,2.8422894,-14.521303,-12.369827
1421631123587.00,-0.61252624,-10.977273,-9.225466
1421631123606.00,-0.69725007,-7.1206923,-7.0745883
1421631123628.00,2.132615,-4.069587,-8.202493
1421631123650.00,4.1367974,-1.3895603,-2.523153
1421631123666.00,2.782414,-1.3076806,0.16630417
1421631123687.00,1.1123369,-1.2135265,-1.6302599
1421631123707.00,-0.65638506,-4.3081913,-0.2031276
1421631123726.00,1.6148419,-15.5778055,-1.3374687
1421631123788.00,-1.8127304,-19.036663,-4.5535307
1421631123789.00,-6.9599266,-19.055674,-5.911806
1421631123790.00,-3.5075061,-19.452349,1.5389497
1421631123807.00,-3.3367112,-19.262693,5.9652452
1421631123826.00,1.3870157,-15.918647,6.0565553
1421631123846.00,4.27511,-9.286838,2.6340723
1421631123866.00,2.2763164,-7.0284843,2.3911276
1421631123888.00,-0.37182677,-3.4405951,2.9355454
1421631123911.00,-4.6886997,-0.56432647,1.9428099
1421631123939.00,-7.0880604,3.067122,0.18501526
1421631123948.00,-7.172485,5.4607944,0.98929274
1421631123967.00,-4.9418235,4.8570995,0.56911653
1421631123986.00,0.036524046,0.08741821,-10.158924
1421631124006.00,4.8124924,-9.961036,-18.149458
1421631124028.00,-0.19459534,-4.7071114,3.0270052
1421631124049.00,-3.0524523,-1.2220588,15.350578
1421631124114.00,-7.27577,-15.099999,11.871364
1421631124115.00,-8.43481,-18.95658,-0.62554914
1421631124116.00,-1.194516,-6.5410976,-2.5851243
1421631124126.00,-1.9188597,-7.475904,8.521929
1421631124146.00,0.7450008,-16.780704,13.977633
1421631124166.00,1.4768289,-19.200274,3.7016523
1421631124187.00,4.3132806,-17.194593,-6.7817974
1421631124206.00,5.1645603,-18.643282,-6.906488
1421631124227.00,4.4108777,-18.050215,-6.342012
1421631124255.00,-0.09969269,-13.280084,-12.083921
1421631124268.00,-1.0889854,-10.311308,-9.322015
1421631124290.00,0.6753955,-7.715555,-5.792055
1421631124306.00,4.399052,-5.2602115,-8.531508
1421631124326.00,5.9704843,-3.0115874,-3.6036062
1421631124346.00,3.0633798,-1.8952088,1.497935
1421631124368.00,0.13861175,-1.4311738,-0.8887019
1421631124387.00,-1.9185604,-1.2620256,-1.5040723
1421631124458.00,-1.7579443,-7.967781,-4.1341033
1421631124459.00,1.2063414,-17.698895,-5.0265474
1421631124460.00,-2.6056316,-19.325113,-5.3187394
1421631124469.00,-3.5925293,-19.485878,-0.55938673
1421631124486.00,1.4115646,-19.011366,4.9864306
1421631124506.00,1.5497273,-12.0711975,4.4887156
1421631124527.00,3.4696348,-9.239686,3.2850688
1421631124546.00,2.5661137,-7.2322106,2.635719
1421631124568.00,-0.11496094,-3.5100508,2.9789553
1421631124594.00,-4.7548623,0.121996306,1.3090279
1421631124607.00,-6.4899044,2.8651917,-0.3835025
1421631124626.00,-5.5976095,4.6836104,2.446213
1421631124646.00,-5.785918,2.0104692,0.50130755
1421631124666.00,-3.6932697,-3.1831307,-9.7377
1421631124686.00,2.3043082,-16.218922,-18.176401
1421631124708.00,1.0892848,-6.555019,7.022946
1421631124726.00,-1.5819104,1.0078541,15.143409
1421631124793.00,-8.457712,-15.079791,10.418485
1421631124794.00,-7.096293,-15.637681,-0.064964905
1421631124795.00,0.052091673,-5.333559,1.6661851
1421631124806.00,1.5703844,-13.989908,11.2760515
1421631124826.00,2.2751188,-18.659298,7.8775187
1421631124846.00,1.7890795,-18.829643,-6.146518
1421631124867.00,3.496579,-16.11923,-6.334976
1421631124894.00,2.2109025,-16.578325,-4.5502377
1421631124908.00,1.2027489,-17.036074,-5.267097
1421631124930.00,-4.456233,-13.117672,-13.540093
1421631124946.00,-2.516417,-9.802067,-11.570639
1421631124967.00,-0.21345611,-6.916966,-7.8653936
1421631124987.00,2.4276516,-3.3491354,-4.97236
1421631125006.00,4.434229,0.105680235,-0.37062928
1421631125027.00,3.4426908,-0.5510042,-2.0483406
1421631125097.00,0.6771918,-0.41957748,-1.3157638
1421631125098.00,0.2920427,-3.0644274,0.74395293
1421631125099.00,1.6627423,-14.072087,-5.8091197
1421631125107.00,2.291435,-18.83174,-1.7916243
1421631125126.00,-2.0818708,-19.479292,-8.944051
1421631125146.00,-1.1270064,-19.560574,5.601801
1421631125166.00,-2.775229,-19.048489,4.525988
1421631125186.00,2.6084757,-14.084211,3.3310232
1421631125208.00,3.5694773,-10.931169,1.8368303
1421631125229.00,0.7325766,-8.124954,1.2909155
1421631125246.00,-2.741998,-4.5122166,1.572929
1421631125266.00,-4.9922686,-1.7678238,0.728535
1421631125286.00,-6.690038,1.2948074,-1.1482621
1421631125306.00,-8.067324,3.8941522,0.89424044
1421631125326.00,-7.0941978,2.3306534,-1.1400293
1421631125346.00,-3.8863683,-0.7946974,-6.377039
1421631125368.00,1.2888199,-13.681998,-16.803457
1421631125457.00,4.504433,-12.279565,-5.6699095
1421631125458.00,-0.27303222,-5.0907636,12.431798
1421631125459.00,-4.340374,-15.526163,6.1140356
1421631125461.00,-6.331833,-15.880028,5.9011784
1421631125466.00,-5.51573,-5.450166,6.727011
1421631125487.00,-5.2681446,-9.66076,10.255324
1421631125506.00,-3.167563,-16.565002,8.694071
1421631125531.00,0.09490265,-19.170935,-9.98783
1421631125550.00,8.13648,-17.053587,-6.529422
1421631125566.00,7.9828997,-15.810422,-0.6030958
1421631125588.00,4.557722,-17.856218,-5.1913548
1421631125607.00,2.2607489,-15.7185135,-5.417235
1421631125626.00,-2.2679338,-11.111094,-10.354867
1421631125646.00,-2.3417304,-8.563393,-8.044122
1421631125666.00,-1.8745519,-6.4517336,-8.213869
1421631125687.00,-0.084873505,-3.8772373,-7.458989
1421631125749.00,2.058669,-0.20492385,-0.68467623
1421631125751.00,2.331851,-0.72239774,0.3293152
1421631125752.00,0.8716374,-1.0921289,-0.8643027
1421631125767.00,1.2295432,-7.904463,-3.4367034
1421631125786.00,3.761977,-17.992884,0.82463515
1421631125806.00,-2.6547294,-19.36508,-6.163433
1421631125826.00,-3.3290772,-19.452948,-7.1956863
1421631125846.00,-0.88690567,-19.563717,7.955656
1421631125870.00,-2.1481829,-18.203945,5.9411454
1421631125890.00,3.0856833,-11.932885,3.3301249
1421631125907.00,2.0921993,-8.568481,2.908901
1421631125927.00,-0.068407744,-6.1674747,2.909799
1421631125946.00,-2.3848407,-3.7386255,3.2693512
1421631125966.00,-5.7348742,-1.271456,0.9428893
1421631125988.00,-8.814869,1.6548088,-0.9259744
1421631126006.00,-9.691297,4.051475,1.1380833
1421631126082.00,-7.1727843,2.92866,-3.1778915
1421631126088.00,-2.2249732,-0.77957886,-10.304571
1421631126089.00,-0.0981958,-5.630691,-7.821086
1421631126090.00,-1.2440629,-1.7902771,9.873618
1421631126107.00,0.1061293,-12.905113,11.966116
1421631126126.00,-2.5830286,-18.673069,-1.9594253
1421631126146.00,1.432072,-10.545421,-0.97776675
1421631126166.00,-3.3617094,-3.0717623,5.4741163
1421631126187.00,-4.2719665,-8.346194,11.338621
1421631126217.00,-3.6836898,-14.352604,7.340585
1421631126226.00,-0.7234456,-18.603165,-2.4297473
1421631126246.00,6.685248,-16.500637,-8.086035
1421631126266.00,7.629484,-17.381704,-6.4375134
1421631126286.00,5.1485434,-16.608562,-6.0342517
1421631126306.00,-0.6065387,-12.206367,-10.046957
1421631126327.00,0.033081207,-9.802666,-9.052575
1421631126347.00,1.9143691,-7.510482,-9.385932
1421631126412.00,3.7068915,-4.648134,-6.393954
1421631126413.00,1.280587,-2.920876,0.5090913
1421631126414.00,-0.8288264,-2.8569589,1.4076728
1421631126426.00,-0.7231462,-3.0365853,0.40865022
1421631126447.00,-0.6984476,-15.408359,-3.0548475
1421631126466.00,-4.529431,-19.01361,-5.329667
1421631126486.00,-4.6622047,-19.187998,-7.2438865
1421631126506.00,-1.2042458,-19.470312,1.8844314
1421631126526.00,-2.945874,-19.490818,6.2285476
1421631126546.00,2.1751268,-14.3909235,2.7976823
1421631126566.00,3.7862265,-9.491912,2.20731
1421631126586.00,1.6998651,-5.4212766,2.1104612
1421631126609.00,-1.3705499,-2.198628,3.251239
1421631126626.00,-5.172494,0.50639695,2.064956
1421631126646.00,-7.507937,4.189488,0.068407744
1421631126718.00,-7.801626,6.542894,1.3582754
1421631126719.00,-5.217101,5.508994,-0.7867639
1421631126720.00,0.016016694,-0.5312453,-9.3309965
1421631126727.00,4.2546024,-11.996952,-17.778679
1421631126747.00,1.8556911,-6.114335,-1.8649718
1421631126767.00,-2.8274703,-0.122145995,13.618081
1421631126787.00,-3.4465828,-11.420201,13.217215
1421631126806.00,-9.207503,-18.47114,-3.936963
1421631126827.00,0.6756949,-6.7133894,0.690065
1421631126847.00,-2.1148024,-5.62635,8.541687
1421631126867.00,-2.8779154,-12.793146,13.024864
1421631126886.00,-1.7639319,-18.246307,4.599785
1421631126907.00,1.1960129,-19.14384,-5.5179753
1421631126926.00,6.5199914,-14.817836,-2.911296
1421631126946.00,5.11172,-17.672998,-3.3784745
1421631126970.00,3.6262093,-15.880326,-5.807473
1421631126988.00,-0.76356214,-12.756772,-12.864248
1421631127068.00,-0.9406439,-9.58906,-10.173893
1421631127069.00,-0.06301895,-7.2486763,-7.609875
1421631127071.00,1.4319223,-3.5010695,-7.390731
1421631127071.00,2.2269192,-0.62045974,-1.4756314
1421631127087.00,1.579216,-1.0976673,0.05388794
1421631127106.00,1.2159215,0.046403505,-1.4775773
1421631127126.00,0.676593,-3.5233731,0.9213341
1421631127146.00,3.6175272,-15.911612,-2.8139982
1421631127166.00,2.0826192,-19.082018,-3.1597793
1421631127190.00,-5.4245696,-19.513271,-7.087162
1421631127210.00,-3.4408946,-19.481688,3.0255084
1421631127226.00,-1.9655626,-19.03771,5.882018
1421631127246.00,1.6019686,-12.335249,2.9900322
1421631127267.00,3.514392,-9.512419,1.5874488
1421631127286.00,0.99303496,-6.806945,1.9642154
1421631127307.00,-2.325564,-3.5567536,3.479664
1421631127327.00,-4.9996033,-0.6860234,2.810855
1421631127379.00,-7.043603,2.3430777,-0.29368928
1421631127380.00,-7.9683795,4.5348196,0.71760774
1421631127389.00,-6.476881,3.5741177,-0.8140073
1421631127410.00,-2.1035757,-1.1258088,-8.960068
1421631127427.00,3.6178267,-13.198354,-17.872982
1421631127446.00,2.7616072,-9.291328,0.02469864
1421631127467.00,-1.4467415,-2.0046313,15.500417
1421631127488.00,-5.8766294,-13.538896,9.485774
1421631127509.00,-8.689131,-18.75929,3.624862
1421631127526.00,-2.1612058,-7.239096,4.135151
1421631127547.00,-2.941982,-8.954379,8.740174
1421631127566.00,-2.2635927,-14.700331,9.210048
1421631127587.00,-0.8605605,-18.917212,1.3334271
1421631127607.00,5.028194,-17.255667,-5.8050785
1421631127627.00,5.9607544,-17.61028,-6.629414
1421631127646.00,5.638475,-17.173338,-5.028194
1421631127666.00,3.829337,-13.3022375,-9.023087
1421631127728.00,1.4135106,-10.681189,-9.662557
1421631127729.00,0.79035646,-8.172405,-7.0207005
1421631127730.00,1.4377601,-4.999753,-8.129595
1421631127747.00,2.2734723,-1.8522482,-4.8051577
1421631127767.00,0.7276369,-1.3552817,1.281036
1421631127786.00,-0.33650026,-0.29803026,-0.14280304
1421631127806.00,-1.3124707,-1.2424164,0.16301101
1421631127830.00,0.74036044,-12.796739,-3.8276904
1421631127867.00,4.0145016,-18.65825,-2.0676503
1421631127868.00,-4.243376,-18.928886,-5.588179
1421631127887.00,-4.546645,-18.944454,-3.6630328
1421631127907.00,-3.1461575,-19.49456,4.045038
1421631127926.00,0.32437545,-16.900156,7.0561767
1421631127947.00,4.2978625,-11.137889,1.0401869
1421631127967.00,2.0678,-7.6511893,2.3465204
1421631128041.00,-0.780477,-4.2993593,3.0292506
1421631128043.00,-4.5090733,-0.72643936,3.8522391
1421631128044.00,-7.028634,2.4704626,2.0776794
1421631128054.00,-7.63143,4.9455657,2.0315752
1421631128067.00,-6.4026356,4.526587,0.17827927
1421631128086.00,-2.5505462,1.2731025,-9.599089
1421631128106.00,1.6561561,-9.82437,-18.187927
1421631128126.00,3.5660343,-12.831916,-7.9534106
1421631128149.00,-0.49172744,-0.51717454,15.731686
1421631128174.00,-3.409011,-14.028677,11.06978
1421631128186.00,-6.119425,-18.810783,2.9026139
1421631128207.00,-3.331622,-5.150639,3.3823664
1421631128227.00,-5.1419573,-6.5860043,8.842113
1421631128247.00,-4.6545706,-14.684164,13.123959
1421631128268.00,-3.6574943,-18.915115,3.3341665
1421631128288.00,4.738995,-16.526234,-8.701705
1421631128309.00,7.521559,-16.925753,-4.6551695
1421631128327.00,6.125412,-18.212477,-4.6092153
1421631128386.00,4.0712337,-13.420342,-8.34799
1421631128387.00,1.5428417,-10.83926,-9.908345
1421631128388.00,1.1431727,-8.822653,-6.8575397
1421631128407.00,2.32257,-5.910908,-7.428153
1421631128427.00,3.06802,-2.3114932,-4.418661
1421631128447.00,2.342329,-0.712668,-0.48753616
1421631128468.00,1.2850777,-1.5194902,-2.2445824
1421631128486.00,0.61522067,-2.2143452,0.29353958
1421631128506.00,1.9306852,-11.832893,-1.1362871
1421631128527.00,3.8940024,-18.527273,-1.5079641
1421631128546.00,-6.165828,-19.407742,-7.058422
1421631128567.00,-7.021,-18.467995,-3.9278321
1421631128587.00,-4.163442,-19.429745,2.8436365
1421631128606.00,-3.049758,-17.09071,4.872368
1421631128627.00,3.5822008,-13.204192,2.4533982
1421631128693.00,3.683091,-9.393866,1.6913328
1421631128694.00,-0.07469467,-5.0413666,2.967579
1421631128696.00,-3.1014006,-1.674418,3.7058437
1421631128707.00,-5.5074973,0.69859725,2.2773643
1421631128727.00,-6.8226624,4.287983,0.83825684
1421631128747.00,-6.36671,4.567302,0.17214203
1421631128767.00,-4.162245,1.6004719,-3.1482532
1421631128788.00,2.018253,-7.4860826,-13.706996
1421631128808.00,5.127737,-17.936003,-18.49419
1421631128829.00,1.6190332,-4.027076,6.877598
1421631128850.00,-0.5306465,0.24893235,14.909446
1421631128867.00,-7.79504,-14.390475,7.27577
1421631128887.00,-6.5830107,-18.16787,2.9906309
1421631128907.00,-3.3362622,-6.9609747,2.4551945
1421631128927.00,-4.5195518,-9.215586,7.5404196
1421631128946.00,-2.6247916,-16.355738,9.18011
1421631128971.00,0.1207988,-19.142344,0.14549744
1421631129055.00,5.8549247,-15.69636,-4.8329997
1421631129056.00,7.0368667,-16.48911,-3.6232154
1421631129057.00,5.677394,-17.544716,-3.8853204
1421631129058.00,3.848048,-12.725039,-6.562054
1421631129068.00,0.8403525,-10.825638,-11.128907
1421631129087.00,0.5752537,-9.323063,-7.511829
1421631129107.00,0.81280977,-6.378985,-7.4161777
1421631129127.00,2.551594,-3.1370265,-6.695277
1421631129147.00,2.1070185,-0.93989545,1.0803035
1421631129170.00,0.17064515,-1.2374767,0.52196455
1421631129188.00,-0.6399193,-1.7808467,-0.17857864
1421631129207.00,0.3637436,-10.01193,-2.6569748
1421631129227.00,3.4223332,-18.242414,-2.4396267
1421631129252.00,-4.375551,-19.39906,-6.404881
1421631129267.00,-4.754413,-19.25416,-2.4974067
1421631129288.00,-3.1895673,-19.536623,2.9970675
1421631129356.00,-2.3781047,-17.386944,5.816604
1421631129358.00,3.9794745,-12.143497,2.8110044
1421631129359.00,3.33731,-8.538993,2.5027955
1421631129375.00,0.29114455,-4.8680267,2.6993368
1421631129387.00,-3.3554223,-0.9596544,4.124673
1421631129407.00,-5.663922,1.9086809,2.8038194
1421631129427.00,-7.0678525,4.363426,1.1097922
1421631129450.00,-6.4834676,5.2054253,-0.25252488
1421631129470.00,-3.3605118,2.7042763,-8.03559
1421631129493.00,1.2711567,-8.033793,-16.342566
1421631129507.00,3.161276,-15.141164,-11.969708
1421631129527.00,0.10837463,-1.992806,11.742481
1421631129547.00,0.6756949,-7.880213,12.54616
1421631129568.00,-10.418185,-17.679436,5.330116
1421631129587.00,-2.7749295,-10.793755,1.6443306
1421631129607.00,-3.787873,-3.956123,6.5074177
1421631129628.00,-4.227509,-10.044562,10.094857
1421631129695.00,-2.8557615,-17.367485,9.22801
1421631129696.00,-0.18920654,-18.491047,-1.246907
1421631129704.00,5.030888,-14.290333,-6.6349525
1421631129715.00,5.181475,-16.058756,-3.0151799
1421631129727.00,4.6797185,-16.767681,-3.6326458
1421631129751.00,3.9929466,-14.034965,-7.6175094
1421631129767.00,3.0285022,-11.536809,-11.7423315
1421631129790.00,2.432891,-10.084679,-8.096363
1421631129810.00,2.1794677,-6.5922914,-7.36229
1421631129827.00,3.6462677,-3.5961218,-6.638994
1421631129847.00,3.054099,-1.3178595,0.20866607
1421631129867.00,1.3193564,-1.284928,1.7542021
1421631129887.00,-0.825683,-1.3356725,0.022902375
1421631129907.00,0.14834152,-9.979597,-3.286865
1421631129927.00,4.253405,-18.24481,-1.8709593
1421631130001.00,-3.6847374,-19.399359,-5.3260746
1421631130002.00,-6.8768497,-18.333275,-4.36642
1421631130003.00,-3.3894017,-19.411333,3.6067498
1421631130012.00,-2.4821384,-19.359241,5.332361
1421631130029.00,3.2427068,-14.848971,4.8356943
1421631130047.00,3.7860768,-8.861273,2.5444088
1421631130067.00,1.0496173,-6.315517,1.9986438
1421631130088.00,-2.3369403,-2.4860303,3.2162118
1421631130107.00,-5.431605,1.1331437,1.9498453
1421631130128.00,-6.9515443,4.5973897,0.061072998
1421631130148.00,-6.4415545,5.3691845,1.6185842
1421631130167.00,-4.0842566,3.3341665,-1.0717713
1421631130187.00,1.8154248,-4.423751,-11.222762
1421631130211.00,4.881948,-16.166681,-17.723593
1421631130227.00,3.0460157,-9.219028,0.47047165
1421631130248.00,-2.1932392,-2.8728259,12.634477
1421631130267.00,-7.4360867,-15.068714,7.9287124
1421631130332.00,-7.652237,-16.995508,4.580325
1421631130338.00,-4.180357,-5.676196,4.904551
1421631130339.00,-3.7775445,-9.765244,8.748407
1421631130351.00,-1.4494358,-16.442408,9.731114
1421631130375.00,0.90277267,-19.15417,-1.5314653
1421631130388.00,5.9785676,-16.126863,-6.2604313
1421631130407.00,6.5126567,-15.614629,-2.5731492
1421631130429.00,3.9281313,-17.716558,-3.7775445
1421631130448.00,2.5405169,-14.443016,-5.591772
1421631130467.00,0.46104127,-11.088491,-11.558663
1421631130487.00,0.20088226,-9.868828,-9.05033
1421631130507.00,-0.20597167,-6.6964746,-7.6408606
1421631130528.00,1.7832417,-3.8615198,-7.774533
1421631130547.00,2.613565,-1.3683046,-0.7283853
1421631130567.00,1.5063176,-0.7348219,0.38335282
1421631130587.00,0.18097366,-1.1472144,-1.4578185
1421631130653.00,-0.60519147,-6.008056,-1.5456858
1421631130653.00,3.160378,-17.674196,-0.22782624
1421631130654.00,-2.904111,-19.32182,-4.3963575
1421631130667.00,-6.4628105,-18.591938,-5.2763777
1421631130687.00,-3.4021254,-19.446661,1.61095
1421631130707.00,-2.970423,-18.86033,5.197342
1421631130728.00,2.177971,-15.498322,4.709806
1421631130747.00,4.111949,-10.411599,3.3727863
1421631130769.00,1.3446537,-6.077362,2.542014
1421631130787.00,-1.3706996,-2.5753944,3.5467246
1421631130807.00,-4.6234355,-0.105680235,2.9861403
1421631130827.00,-6.501131,3.0091925,1.1285033
1421631130849.00,-7.0446506,4.8527584,1.2867242
1421631130868.00,-6.160589,3.6022592,-0.41852966
1421631130888.00,-1.3934523,0.02350113,-9.661958
1421631130910.00,2.037114,-14.278956,-18.050514
1421631130987.00,2.9556038,-14.584472,-6.1288548
1421631130988.00,0.1552272,-1.6742684,14.9184265
1421631130989.00,-6.6077094,-14.77742,7.91045
1421631130990.00,-7.702682,-15.541881,9.421707
1421631131010.00,-5.655689,-4.807553,7.986492
1421631131027.00,-4.831952,-10.549462,9.35764
1421631131047.00,-0.70458484,-18.261576,9.900412
1421631131067.00,3.2778835,-19.401604,-6.671626
1421631131089.00,7.6634636,-14.846277,-5.261409
1421631131107.00,5.7579265,-15.676451,-2.3450234
1421631131127.00,5.004393,-18.284328,-3.7395236
1421631131147.00,2.6860144,-14.67174,-6.447692
1421631131167.00,-2.3902295,-10.221495,-12.891791
1421631131188.00,-1.239722,-9.279203,-7.2878947
1421631131208.00,-0.36928207,-5.0991464,-8.469238
1421631131228.00,2.1667442,-3.2726445,-7.729626
1421631131248.00,2.4486082,-0.19893631,1.8315911
1421631131319.00,1.1410772,-0.4923262,0.5334906
1421631131320.00,-0.20657043,-1.7480649,-0.21794678
1421631131321.00,1.2266991,-10.480306,-1.5220349
1421631131332.00,4.093238,-18.137632,-0.78781176
1421631131347.00,-4.4569817,-19.384838,-6.021229
1421631131367.00,-5.848488,-19.357296,-3.2299833
1421631131387.00,-2.0390596,-19.550694,4.3141785
1421631131407.00,-3.1912138,-16.747473,3.171455
1421631131427.00,2.4427702,-13.538297,5.357509
1421631131448.00,3.474874,-9.047336,2.709815
1421631131467.00,0.6399193,-5.0611253,2.7518775
1421631131487.00,-2.4752526,-1.3711487,3.9243891
1421631131507.00,-5.0551376,1.3087285,2.8851004
1421631131530.00,-6.044281,4.120332,1.83698
1421631131548.00,-6.316864,4.8427296,0.4340973
1421631131611.00,-4.0848556,2.1091142,-5.351222
1421631131612.00,0.8840616,-7.521858,-16.481476
1421631131613.00,1.8594333,-15.628251,-13.614039
1421631131627.00,0.08786728,-2.3589447,9.643995
1421631131647.00,-0.8702902,-5.624404,13.47932
1421631131668.00,-10.320738,-17.371675,6.769972
1421631131687.00,-3.9880068,-12.3156395,4.750671
1421631131707.00,-3.0841863,-4.8103967,7.0163593
1421631131727.00,-2.9431796,-11.605966,10.610835
1421631131747.00,-0.5572911,-18.371895,8.82939
1421631131767.00,2.3466702,-19.160904,-4.7623467
1421631131788.00,7.1091666,-14.067297,-6.235134
1421631131807.00,5.907166,-17.988094,-3.5760636
1421631131827.00,5.0413666,-17.246237,-4.1415877
1421631131847.00,2.0366647,-12.8376045,-10.388098
1421631131867.00,-0.1525328,-10.454559,-9.828562
1421631131887.00,-0.7560777,-8.086634,-7.2613997
1421631131953.00,0.1857637,-4.7723756,-8.125553
1421631131953.00,1.6094531,-1.6584014,-4.3906693
1421631131954.00,0.82643145,-1.2973522,-0.33664992
1421631131967.00,0.22468276,-0.9755214,-0.061821442
1421631131987.00,1.0554552,-3.6398308,1.669628
1421631132007.00,4.252357,-15.457157,0.35895357
1421631132027.00,1.8512005,-19.020197,-3.2064822
1421631132047.00,-6.3741946,-19.260897,-6.1824436
1421631132067.00,-5.1965938,-19.445763,-0.024399262
1421631132087.00,-1.9348764,-19.472406,5.524711
1421631132107.00,0.3439847,-16.7114,4.2328978
1421631132127.00,4.196074,-12.249477,1.405128
1421631132147.00,2.5801845,-8.472681,1.0418335
1421631132167.00,-0.24399261,-5.325925,2.6461973
1421631132188.00,-3.7476068,-2.0689974,2.9750633
1421631132207.00,-6.3676085,1.0127939,1.3834232
1421631132262.00,-8.007748,4.1367974,0.13846207
1421631132263.00,-7.5621243,4.468957,-0.02933899
1421631132267.00,-3.4630485,1.5871495,-5.9814115
1421631132287.00,2.1930895,-9.336385,-16.790733
1421631132309.00,3.5443296,-13.0319,-8.146509
1421631132327.00,-0.77688444,-2.8472292,13.788576
1421631132347.00,-2.783761,-16.192877,7.734117
1421631132367.00,-5.444478,-18.819315,7.7342663
1421631132387.00,-3.4376016,-6.316864,6.8984046
1421631132411.00,-4.810097,-7.3850427,8.723559
1421631132427.00,-2.085014,-16.245417,12.449162
1421631132447.00,1.8549427,-19.127375,-0.89932984
1421631132468.00,5.9197397,-15.283518,-7.4693174
1421631132487.00,6.004164,-15.032041,0.004790039
1421631132508.00,4.586163,-18.575922,-3.57292
1421631132527.00,3.542683,-16.324303,-5.957761
1421631132587.00,1.3377681,-11.276351,-11.504477
1421631132588.00,1.7886305,-10.197844,-8.885074
1421631132589.00,0.8580158,-6.9581304,-7.4250097
1421631132607.00,1.6552578,-3.8812788,-8.388855
1421631132629.00,2.4233108,-1.1247611,-1.0798545
1421631132647.00,0.798739,-0.07065307,1.7483642
1421631132668.00,-0.48843428,-1.3645624,-1.0951227
1421631132687.00,0.22602996,-8.8829775,-5.0027466
1421631132707.00,3.4982255,-17.611776,-0.21091141
1421631132727.00,-3.4944832,-19.313288,-4.5119176
1421631132747.00,-6.160589,-18.904188,-4.2224193
1421631132768.00,-2.0914507,-19.482286,3.5880387
1421631132787.00,-2.8590546,-17.891993,5.6603293
1421631132807.00,2.1981788,-13.039535,4.0498285
1421631132827.00,3.601361,-8.332123,3.0416749
1421631132847.00,1.3328284,-4.6110115,3.8200562
1421631132916.00,-2.0767813,-0.71626055,4.518953
1421631132918.00,-4.376599,1.7561481,3.744164
1421631132922.00,-5.2400036,4.4610233,1.6257691
1421631132930.00,-6.0053616,4.9826884,-0.9937834
1421631132947.00,-5.4401374,2.8837533,-7.6645117
1421631132967.00,-1.090632,-9.101673,-17.453257
1421631132987.00,1.6772621,-12.953912,-10.719957
1421631133008.00,-1.1223661,-0.026644593,14.511723
1421631133032.00,-0.10897339,-5.3154464,12.800631
1421631133047.00,-13.835279,-17.44173,7.7044783
1421631133067.00,-3.0856833,-13.702057,0.46134064
1421631133087.00,-1.1202704,-2.9716206,5.7785835
1421631133107.00,-2.2302122,-9.801168,10.8489895
1421631133129.00,-0.42676255,-17.688866,10.158176
1421631133149.00,1.257535,-19.323767,-1.4486874
1421631133168.00,6.2971053,-14.436429,-7.8011775
1421631133187.00,5.822442,-18.022223,-4.227808
1421631133257.00,4.0507264,-17.270636,-4.8470707
1421631133258.00,0.65907943,-13.446688,-11.48307
1421631133259.00,0.27961853,-10.47327,-10.529104
1421631133269.00,1.6217276,-8.0806465,-7.583979
1421631133287.00,2.0396585,-4.5949945,-7.211404
1421631133307.00,3.252287,-1.7339941,-2.011966
1421631133329.00,2.367926,-0.41104522,1.7592915
1421631133348.00,1.4112653,-1.4588662,-1.0189312
1421631133371.00,-0.22094055,-4.6964836,-1.7702188
1421631133393.00,2.2617965,-16.03226,-1.1776012
1421631133409.00,-1.8327887,-19.098484,-4.28948
1421631133427.00,-7.5062904,-18.8985,-6.1843896
1421631133448.00,-4.2739124,-19.397713,-0.77972853
1421631133467.00,-2.5366251,-18.939217,4.6466374
1421631133487.00,0.72778654,-15.665374,5.409451
1421631133508.00,4.0104604,-10.8859625,2.4993525
1421631133527.00,1.6929795,-6.838679,2.6373656
1421631133596.00,-0.9406439,-3.0383816,3.6390824
1421631133597.00,-4.1594005,0.4290079,4.1631427
1421631133598.00,-6.0052123,3.5527122,2.2329066
1421631133609.00,-6.261629,4.8633866,1.2732522
1421631133628.00,-5.3480787,3.7426672,-1.6015196
1421631133648.00,0.05763016,-2.171684,-13.797408
1421631133667.00,2.6978397,-15.937657,-18.762283
1421631133688.00,1.6012203,-7.5476046,4.398453
1421631133707.00,-1.8982027,-3.254532,14.542559
1421631133727.00,-9.543405,-16.382084,7.306456
1421631133747.00,-6.4155087,-15.74441,4.9109874
1421631133768.00,-4.365522,-5.6145244,7.1765265
1421631133788.00,-4.4906616,-10.488838,12.613071
1421631133807.00,-1.5167958,-17.69605,9.630972
1421631133884.00,2.484683,-19.309696,-3.3885036
1421631133885.00,7.174281,-15.894847,-7.8418927
1421631133886.00,7.176377,-17.693207,-3.663931
1421631133888.00,5.677244,-16.835041,-4.3656716
1421631133908.00,2.5815318,-12.223581,-10.28586
1421631134044.00,0.51552796,-9.967622,-10.534194
1421631134046.00,0.540526,-8.126152,-8.954229
1421631134047.00,1.540746,-4.815187,-8.570578
1421631134048.00,3.022814,-2.058669,-2.5930576
1421631134049.00,1.6783099,0.29788056,1.251248
1421631134050.00,0.359702,-0.42227188,-0.60070086
1421631134051.00,-0.15956818,-2.9844937,0.5616321
1421631134067.00,3.013683,-13.4655485,-2.4815397
1421631134107.00,3.6146832,-18.74926,-3.3188982
1421631134108.00,-4.67897,-19.468065,-6.5214887
1421631134136.00,-3.960015,-19.325712,-0.95366687
1421631134148.00,-2.0868104,-19.546352,3.203638
1421631134168.00,-0.6209088,-17.169445,5.1256413
1421631134237.00,4.0145016,-11.991714,1.895658
1421631134238.00,3.1546898,-8.384215,2.0779788
1421631134239.00,-0.30311966,-4.710405,3.1975007
1421631134248.00,-4.582271,-0.6771918,4.2224193
1421631134268.00,-6.514004,2.5403674,0.8560698
1421631134288.00,-7.449409,4.577032,0.20522323
1421631134308.00,-6.7475185,3.9938447,-0.35251695
1421631134334.00,-2.7851083,-0.08083191,-7.856712
1421631134349.00,3.1889684,-13.7534,-17.447119
1421631134367.00,3.6036062,-12.448862,-4.9223638
1421631134388.00,-2.3857388,-5.239105,13.764776
1421631134408.00,-6.075566,-16.76409,6.237379
1421631134427.00,-6.511759,-13.535603,5.796546
1421631134448.00,-5.692812,-5.280719,6.941066
1421631134468.00,-5.5558467,-9.93469,12.193494
1421631134532.00,-0.9925859,-17.91804,11.135942
1421631134533.00,5.195845,-19.3549,-7.5865235
1421631134534.00,8.45906,-15.142212,-4.919969
1421631134551.00,6.0448794,-16.094381,-0.94079363
1421631134572.00,4.348607,-18.967806,-5.2880535
1421631134587.00,2.0853136,-14.841637,-9.144933
1421631134607.00,-0.5683681,-10.918744,-11.28114
1421631134628.00,-0.76670563,-8.212223,-7.4142323
1421631134649.00,0.24623795,-4.8086004,-8.422535
1421631134668.00,2.5156686,-2.1324656,-5.639822
1421631134690.00,2.2704785,-0.23186783,1.6118481
1421631134713.00,0.83002394,-0.20881577,-1.0147399
1421631134728.00,-0.91609496,-1.6877403,-1.3950989
1421631134747.00,0.7991881,-10.2949915,-2.5387206
1421631134768.00,4.6382546,-18.243912,-1.6116985
1421631134792.00,-4.434678,-19.39921,-6.3080325
1421631134813.00,-4.955595,-19.346819,-2.8107052
1421631134827.00,-1.5834073,-19.549347,4.069737
1421631134918.00,-1.2172687,-16.344362,5.1600695
1421631134919.00,4.044739,-12.697945,3.3028817
1421631134920.00,3.3133597,-8.706644,2.2770648
1421631134921.00,0.14085709,-4.954996,2.8798614
1421631134932.00,-3.9490879,-0.8327184,4.333638
1421631134948.00,-6.279292,2.491868,2.2103035
1421631134968.00,-7.5250015,4.766089,-0.19010468
1421631134988.00,-7.0570745,4.3504033,-1.2154725
1421631135008.00,-2.5153692,0.80622345,-9.332792
1421631135027.00,1.1305989,-12.072695,-17.733173
1421631135048.00,2.3662794,-12.73851,-8.009844
1421631135068.00,-0.28321105,1.4154565,13.828843
1421631135088.00,-0.65099627,-6.715485,10.756931
1421631135111.00,-12.625345,-17.548008,6.63136
1421631135129.00,-2.8349547,-11.3008995,0.50070876
1421631135149.00,-3.0018575,-2.1484823,4.7662387
1421631135224.00,-4.050876,-9.2063055,10.323881
1421631135235.00,-1.7955163,-17.736767,10.679991
1421631135239.00,1.9226019,-19.23994,-1.7612375
1421631135240.00,7.2569094,-14.735507,-8.5960245
1421631135251.00,7.052584,-17.650246,-2.84678
1421631135268.00,5.4904327,-16.930393,-4.7153444
1421631135288.00,2.1055214,-13.609998,-9.863139
1421631135308.00,-1.0868897,-9.1693325,-10.431507
1421631135328.00,-0.45774812,-7.1735325,-8.385861
1421631135348.00,1.3919554,-4.0731797,-8.480914
1421631135367.00,3.319048,-1.2178674,-2.5225544
1421631135387.00,2.5029452,-0.8095166,1.02911
1421631135407.00,1.6338524,-0.33739838,-1.8224602
1421631135427.00,0.2535727,-2.0883074,-0.29039612
1421631135447.00,2.0998335,-11.311976,-2.0901036
1421631135467.00,5.9481807,-18.45632,-1.593137
1421631135540.00,-2.2730231,-19.428099,-7.197333
1421631135541.00,-3.0942156,-19.444117,-2.4146287
1421631135542.00,-2.628983,-19.56252,2.4417224
1421631135554.00,-0.99468154,-16.405285,4.336482
1421631135568.00,3.4151483,-12.299922,1.9910097
1421631135587.00,2.4312441,-8.308922,1.2283456
1421631135608.00,-0.070503384,-4.852609,2.36598
1421631135628.00,-3.656147,-1.5358063,2.8461814
1421631135650.00,-6.1772046,1.2102333,-0.93600357
1421631135667.00,-8.014933,2.9207263,-1.5754738
1421631135688.00,-7.0563264,2.1987777,-0.7455995
1421631135708.00,-3.102748,-1.1385324,-6.457871
1421631135727.00,1.5320641,-12.397819,-16.32116
1421631135747.00,2.2200334,-11.471844,-7.8939843
1421631135767.00,-2.4613316,2.4767497,12.312945
1421631135788.00,-2.3858886,-4.5408072,10.545271
1421631135809.00,-11.577524,-16.421751,5.988447
1421631135877.00,-3.5491195,-15.94604,3.6278558
1421631135878.00,-1.6790584,-7.810009,6.7701216
1421631135879.00,-1.1436218,-11.465557,8.839718
1421631135888.00,0.6554869,-17.724043,4.304748
1421631135908.00,3.484903,-18.45572,-2.2454805
1421631135928.00,6.402935,-15.167659,-3.643573
1421631135947.00,5.6503,-17.839752,-3.354225
1421631135968.00,4.4089317,-17.538279,-4.787494
1421631135987.00,0.81954575,-12.44976,-9.988279
1421631136008.00,-0.29009673,-9.658665,-10.823393
1421631136028.00,1.4019846,-7.516619,-6.959478
1421631136049.00,1.2293935,-3.8609211,-7.409442
1421631136068.00,3.508554,-2.1679418,-4.449048
1421631136088.00,2.6592202,-0.35012192,1.8853295
1421631136108.00,1.2196637,-1.4491365,0.19399658
1421631136128.00,0.35416353,-3.9947429,0.22498214
1421631136186.00,4.1826024,-14.745537,-0.19040406
1421631136186.00,0.93196195,-18.92335,-3.8149667
1421631136187.00,-6.7811985,-19.491716,-4.773124
1421631136208.00,-5.898484,-19.568956,-3.0316458
1421631136228.00,-1.7338444,-19.579433,6.9985466
1421631136248.00,-1.7720151,-16.50932,3.6769538
1421631136267.00,3.09691,-11.078013,2.1752765
1421631136289.00,1.9507434,-7.9339514,2.5253985
1421631136308.00,-0.26854157,-4.15012,3.9868095
1421631136328.00,-3.0470636,-0.14370117,4.1989183
1421631136348.00,-5.041217,2.9080029,2.4400759
1421631136368.00,-6.271059,5.314997,0.8596623
1421631136388.00,-6.2739034,4.5671525,0.34338593
1421631136408.00,-1.6619939,1.1984079,-9.010812
1421631136433.00,2.1824615,-11.984528,-18.0574
1421631136449.00,2.7744803,-14.344521,-9.63711
1421631136469.00,0.43080413,-2.0242405,13.920302
1421631136565.00,-3.9088216,-12.319082,9.911489
1421631136567.00,-10.211465,-18.593285,6.6855474
1421631136568.00,-5.3543653,-6.2447143,3.7573366
1421631136569.00,-6.325097,-5.411996,8.244555
1421631136571.00,-3.4467325,-15.501165,15.34968
1421631136590.00,0.72164935,-19.026184,6.276598
1421631136608.00,6.97759,-17.742304,-13.755345
1421631136628.00,7.8692856,-13.930631,-2.8490255
1421631136648.00,5.4269648,-16.596437,-2.4840844
1421631136671.00,3.5863922,-16.410225,-3.8957987
1421631136688.00,-0.77957886,-10.705438,-11.860436
1421631136708.00,0.10807525,-9.170829,-10.962604
1421631136728.00,0.920885,-6.840625,-6.4400578
1421631136748.00,1.2756473,-4.0517745,-9.159752
1421631136821.00,3.9930964,-2.2730231,-3.7260516
1421631136822.00,3.6338434,-0.8027806,2.2128484
1421631136823.00,1.567241,-0.56028485,2.2201831
1421631136831.00,0.45505372,-2.9509635,0.56567365
1421631136848.00,3.841312,-14.684314,-1.9974463
1421631136868.00,3.5136433,-18.915115,-1.2883708
1421631136888.00,-4.612209,-19.324963,-2.8755202
1421631136908.00,-6.4584694,-18.431023,-2.239044
1421631136928.00,-3.737428,-19.340681,1.4054275
1421631136948.00,-1.8676661,-19.262543,3.6685712
1421631136968.00,2.2664368,-16.13914,3.4343083
1421631136988.00,2.8162436,-11.064092,1.712439
1421631137008.00,0.22842498,-8.262218,3.429219
1421631137028.00,-2.0872595,-3.965853,3.7582347
1421631137048.00,-5.072801,-0.07020401,1.8670675
1421631137068.00,-6.8985543,3.2663577,-1.1255095
1421631137088.00,-7.4073462,5.071753,0.33350646
1421631137108.00,-5.551805,3.3120127,-0.25387207
1421631137195.00,1.2716057,-2.3525078,-10.581795
1421631137196.00,2.9318032,-12.7112665,-18.13464
1421631137197.00,3.3792229,-10.111024,-3.9419029
1421631137197.00,-0.36583924,2.0309765,14.77757
1421631137208.00,0.102237396,-4.552633,12.308904
1421631137228.00,-13.98422,-17.290844,3.1265483
1421631137248.00,-1.4656023,-15.461647,1.0395882
1421631137269.00,-1.2229569,-3.5832486,3.7062926
1421631137291.00,-2.5099804,-8.394693,9.926607
1421631137308.00,-1.4307247,-16.878302,6.3921576
1421631137328.00,0.76221496,-19.138302,1.2859758
1421631137348.00,5.024302,-16.386425,-7.373367
1421631137368.00,5.785619,-17.51867,-4.096232
1421631137388.00,4.553381,-14.500795,-3.9806721
1421631137408.00,1.4061759,-11.655362,-9.184301
1421631137477.00,1.1933185,-9.032966,-9.968071
1421631137478.00,1.8721569,-7.815248,-7.441775
1421631137479.00,2.709216,-5.1542315,-9.065149
1421631137492.00,4.3022037,-2.6731412,-5.4504657
1421631137509.00,2.291884,-0.45041335,3.7640727
1421631137528.00,0.36194733,-0.58363634,2.0359163
1421631137548.00,-0.6553372,-1.8841319,-0.120200045
1421631137568.00,3.102149,-13.62826,-3.0481114
1421631137588.00,4.991071,-18.771414,-0.9397458
1421631137608.00,-3.5140924,-19.47106,-3.470533
1421631137629.00,-5.7483463,-19.26868,-3.8487964
1421631137650.00,-2.4507036,-19.53872,2.4929159
1421631137673.00,-1.0361453,-18.456919,4.2092466
1421631137694.00,2.8601024,-14.473103,2.5830286
1421631137709.00,2.9451256,-10.873388,1.3503419
1421631137728.00,-0.18142273,-8.269553,3.1579828
1421631137748.00,-2.2520669,-4.060157,4.2248144
1421631137805.00,-4.7788124,-0.44771898,2.636767
1421631137806.00,-6.8834357,3.7452118,-1.190175
1421631137819.00,-7.6131682,5.049599,-1.0527607
1421631137828.00,-6.0785594,3.5569034,-1.7682729
1421631137848.00,0.6138734,-2.930007,-9.487571
1421631137868.00,3.5504668,-13.399086,-18.149158
1421631137888.00,2.6147625,-9.788744,-1.7778529
1421631137908.00,-1.3775853,0.282762,11.633957
1421631137928.00,-4.5664043,-11.346255,8.244855
1421631137949.00,-10.068662,-18.457666,3.454666
1421631137969.00,-1.8520986,-8.806787,2.6158104
1421631137988.00,-1.4687457,-6.663543,7.5528436
1421631138008.00,-0.5322931,-13.065431,10.128387
1421631138032.00,1.3913567,-18.53311,5.214257
1421631138048.00,4.1194334,-17.06616,-5.353617
1421631138068.00,5.6776934,-13.75355,-2.51986
1421631138088.00,3.8041892,-16.644638,-2.4712112
1421631138153.00,2.5264463,-16.231796,-3.3037798
1421631138154.00,-0.068407744,-12.5705595,-8.52118
1421631138157.00,-0.23561005,-9.770332,-13.496085
1421631138169.00,1.6371455,-8.302634,-6.795269
1421631138188.00,0.85127974,-5.3443365,-6.7274604
1421631138208.00,2.5345294,-3.0945148,-7.509584
1421631138228.00,2.665956,-1.0557545,-0.5947133
1421631138248.00,1.2951068,-1.0484198,2.235152
1421631138271.00,-0.035476226,-1.6006215,1.8300943
1421631138288.00,1.0596465,-11.155402,-2.5873694
1421631138308.00,3.8362226,-18.435064,-1.1804452
1421631138328.00,-4.4979963,-19.425255,-3.7459602
1421631138348.00,-7.3052588,-19.322718,-4.52524
1421631138368.00,-3.4304163,-19.525696,-2.1109104
1421631138388.00,-1.976939,-19.287691,7.5410185
1421631138442.00,1.8868263,-16.001276,2.7897487
1421631138443.00,3.3355138,-10.837763,1.7747095
1421631138452.00,0.48783553,-8.234227,2.6096733
1421631138468.00,-1.1731105,-3.153193,4.2439747
1421631138488.00,-3.9752834,0.06780899,3.3070729
1421631138509.00,-5.3914886,3.2674055,0.4791536
1421631138528.00,-6.66968,5.2006354,-0.07783814
1421631138548.00,-6.3599744,3.2307317,-1.0939251
1421631138569.00,0.16570541,-2.8244765,-10.736723
1421631138589.00,2.491868,-14.934593,-18.271904
1421631138610.00,2.6399102,-11.6876955,-2.802472
1421631138629.00,-1.2768447,2.5848248,14.766643
1421631138648.00,-1.2945081,-5.6934104,9.746233
1421631138668.00,-12.016861,-16.800014,4.374503
1421631138688.00,-3.1057415,-14.110856,4.0305185
1421631138708.00,-1.5164964,-6.281388,5.7805295
1421631138776.00,-2.23126,-9.279054,7.4413257
1421631138777.00,-0.7327263,-16.853004,4.5999346
1421631138778.00,2.4773483,-18.863922,0.3794609
1421631138788.00,6.3363237,-15.069463,-4.5852647
1421631138808.00,6.273604,-16.490908,-2.6987379
1421631138828.00,4.489913,-16.055462,-3.4293685
1421631138849.00,1.4278808,-13.11842,-7.2335577
1421631138868.00,-0.8313711,-10.137369,-11.896811
1421631138888.00,0.6879694,-9.25675,-8.293055
1421631138908.00,0.25387207,-6.122718,-8.119266
1421631138928.00,2.3804998,-3.9847138,-6.774313
1421631138948.00,3.1307397,-0.64949936,1.5173945
1421631138968.00,1.1725117,-1.4039305,1.8109342
1421631138989.00,0.104333036,-1.2410692,1.3079801
1421631139010.00,1.0148895,-10.669064,-3.581602
1421631139028.00,4.4806323,-18.368902,-1.099314
1421631139168.00,-3.4896932,-19.416273,-4.9452662
1421631139169.00,-6.127358,-18.842815,-4.0700364
1421631139169.00,-3.2967443,-19.48079,2.031276
1421631139170.00,-2.4340882,-17.833166,4.2911267
1421631139171.00,2.8996203,-15.18622,2.9809012
1421631139172.00,3.8362226,-10.497371,2.019301
1421631139173.00,0.72928345,-6.820417,2.801125
1421631139188.00,-1.7271085,-3.1722033,3.9170544
1421631139208.00,-4.609514,-0.42751098,2.5373735
1421631139228.00,-6.6714764,2.7900481,-0.1525328
1421631139248.00,-7.3461237,4.55892,-1.6775615
1421631139268.00,-5.7178097,2.2140458,-2.5712032
1421631139288.00,0.045954436,-4.2733135,-11.539952
1421631139308.00,3.2910562,-15.688276,-18.396444
1421631139328.00,1.814377,-9.706265,-0.09654923
1421631139353.00,-1.6798068,-0.5099895,13.77705
1421631139368.00,-5.2362614,-12.263398,7.052135
1421631139388.00,-7.6167607,-18.420244,4.960235
1421631139409.00,-3.2760873,-9.886042,5.657485
1421631139469.00,-2.4821384,-10.411599,7.200327
1421631139470.00,-0.9187894,-14.496155,7.4280033
1421631139471.00,1.2928615,-18.710491,-0.545316
1421631139489.00,5.06382,-16.179853,-2.8175907
1421631139508.00,5.2467394,-14.886394,-2.5577312
1421631139530.00,3.8568795,-16.836538,-3.011288
1421631139548.00,2.6252408,-15.290104,-4.6616063
1421631139569.00,-0.5239105,-11.750265,-11.541749
1421631139588.00,0.5266049,-10.121951,-9.821526
1421631139608.00,-0.052989807,-7.5318875,-7.6428065
1421631139628.00,0.21854553,-5.1028886,-7.8770695
1421631139648.00,2.8683352,-1.8291962,-4.6229863
1421631139670.00,2.0576212,-0.9985735,2.0954924
1421631139692.00,1.6810043,-1.9516416,3.3299754
1421631139709.00,1.6639398,-7.993827,-1.3542339
1421631139790.00,3.585943,-17.518969,-0.7032376
1421631139791.00,-3.7793407,-19.300714,-5.1124687
1421631139792.00,-7.2202353,-19.395018,-5.0322356
1421631139793.00,-4.202511,-19.555784,-1.5669415
1421631139808.00,-2.1119583,-19.577639,4.8473697
1421631139828.00,1.8371297,-17.570162,3.1265483
1421631139848.00,4.03456,-11.250904,2.4643254
1421631139868.00,1.2972025,-7.3428307,2.5935068
1421631139888.00,-1.0488689,-4.2076,4.219276
1421631139908.00,-3.6944673,-0.8457413,4.0633
1421631139928.00,-5.547464,2.0381615,0.4565506
1421631139948.00,-7.106472,5.408104,-0.934357
1421631139968.00,-6.871461,6.441854,-1.1030562
1421631139988.00,-2.3770568,1.6299605,-4.3165736
1421631140009.00,3.8823266,-10.985655,-15.930323
1421631140028.00,4.726571,-15.7483015,-12.571757
1421631140115.00,0.3767665,-4.1120987,11.81523
1421631140116.00,-3.54418,-10.361004,12.783866
1421631140117.00,-10.109528,-18.306782,6.874604
1421631140118.00,-4.7957273,-9.751771,2.9183314
1421631140132.00,-5.318141,-5.536836,6.1962147
1421631140149.00,-5.308561,-12.13781,11.082355
1421631140169.00,-1.1364368,-18.548378,9.910741
1421631140188.00,5.259463,-19.440674,-5.2193465
1421631140208.00,8.959918,-13.938115,-5.026996
1421631140228.00,6.2039986,-14.925612,-0.9571097
1421631140248.00,4.104764,-17.585281,-4.1794586
1421631140268.00,2.074536,-13.483361,-8.966654
1421631140289.00,0.22707778,-11.008258,-11.919264
1421631140309.00,0.39772293,-8.776699,-8.049062
1421631140329.00,-0.051642608,-4.9422727,-8.834029
1421631140350.00,1.7739611,-3.025209,-6.6177382
