time_milisec,ax,ay,az
1421631472996.00,-0.86415297,4.148623,9.161998
1421631473007.00,-0.72928345,4.176465,9.29552
1421631473026.00,-0.7592212,4.25101,9.423803
1421631473046.00,-0.65234345,4.240532,9.156159
1421631473065.00,-0.6873706,4.263135,8.851843
1421631473085.00,-0.6569838,4.186195,8.835526
1421631473108.00,-0.6090834,4.2102947,9.127569
1421631473127.00,-0.5161267,3.985013,9.004226
1421631473145.00,-0.4326004,4.1608973,8.923095
1421631473165.00,-0.47825545,4.1917334,9.004974
1421631473186.00,-0.42496628,4.1781116,8.986413
1421631473206.00,-0.46373567,4.321513,8.7913685
1421631473227.00,-0.48080018,4.318819,8.839868
1421631473247.00,-0.31150222,4.219725,8.913664
1421631473265.00,-0.45161086,4.042643,9.10766
1421631473286.00,-0.33275804,4.1275167,9.207354
1421631473306.00,-0.2800676,4.143384,9.200169
1421631473325.00,-0.5054988,4.080814,9.168883
1421631473346.00,-0.49277526,4.045038,9.145082
1421631473365.00,-0.35341507,3.9998324,9.167536
1421631473386.00,-0.3740721,3.990851,9.224268
1421631473406.00,-0.5575905,4.1962237,9.117391
1421631473425.00,-0.64575714,4.3065443,9.056467
1421631473446.00,-0.65114594,4.333638,9.379196
1421631473466.00,-0.8020322,4.2559495,9.209898
1421631473486.00,-0.70518357,4.3541455,8.898994
1421631473506.00,-0.6783893,4.48662,8.798703
1421631473525.00,-0.41358992,4.2930727,8.767867
1421631473545.00,-0.39098695,4.1863446,8.810978
1421631473569.00,-0.49696654,4.0444393,8.991352
1421631473586.00,-0.62554914,4.0641985,9.080268
1421631473605.00,-0.53992724,4.063899,9.278755
1421631473626.00,-0.48349458,4.0505767,9.4049425
1421631473645.00,-0.5556445,4.033512,9.270822
1421631473668.00,-0.5037025,4.0905437,9.213191
1421631473687.00,-0.59441394,4.1685314,9.18011
1421631473708.00,-0.606389,4.008814,9.056916
1421631473728.00,-0.60010207,4.0628514,8.96381
1421631473747.00,-0.6240523,4.2213717,9.020093
1421631473768.00,-0.7632628,4.147575,9.110504
1421631473788.00,-0.7033873,4.065246,9.1126
1421631473807.00,-0.85786605,4.1796083,8.992849
1421631473827.00,-0.8026309,4.197721,9.06485
1421631473848.00,-0.735271,4.330794,9.2311535
1421631473867.00,-0.85786605,4.126619,9.4015
1421631473888.00,-0.7038364,4.281996,9.078621
1421631473908.00,-0.4483177,4.1718245,8.8073845
1421631473927.00,-0.5201683,4.230802,8.975037
1421631473947.00,-0.76416093,4.1361985,9.334739
1421631473967.00,-0.712668,3.9966888,9.445209
1421631473987.00,-0.7659572,4.175417,9.302555
1421631474007.00,-0.64470935,4.1329055,8.941506
1421631474027.00,-0.60040146,4.223617,8.8967495
1421631474047.00,-0.79514647,4.157754,9.167236
1421631474068.00,-0.8837622,4.146677,9.21364
1421631474088.00,-0.7382648,4.2016125,9.29522
1421631474108.00,-0.62016034,4.057612,8.913065
1421631474127.00,-0.7276369,4.263434,8.931626
1421631474147.00,-0.7620653,4.175866,8.989407
1421631474168.00,-0.70278853,4.0770717,9.099876
1421631474187.00,-0.6462062,4.049529,8.927435
1421631474208.00,-0.72419405,4.0454874,9.188193
1421631474227.00,-0.6680608,4.043242,9.07892
1421631474248.00,-0.60579026,4.218827,9.043893
1421631474268.00,-0.76131684,4.1430845,9.010063
1421631474288.00,-0.7722441,4.1658373,9.115744
1421631474308.00,-0.6981482,4.164041,9.203611
1421631474328.00,-0.658331,4.146228,9.186247
1421631474349.00,-0.7291338,4.218677,9.137149
1421631474367.00,-0.6996451,4.2617874,9.172326
1421631474387.00,-0.65204406,4.229455,9.053923
1421631474406.00,-0.72105056,4.1007223,8.985814
1421631474425.00,-0.753533,4.143683,9.020392
1421631474445.00,-0.89678514,3.9978864,9.108259
1421631474465.00,-0.66596514,4.162245,9.22831
1421631474485.00,-0.5706134,4.199816,9.099577
1421631474505.00,-0.6417155,4.2492137,9.083411
1421631474525.00,-0.68811905,4.2718167,9.07413
1421631474548.00,-0.7310797,4.01525,9.070687
1421631474567.00,-0.789608,4.200415,9.096583
1421631474587.00,-0.6993457,4.129313,9.065149
1421631474607.00,-0.62195665,4.20775,9.059011
1421631474626.00,-0.64725405,4.13575,8.928034
1421631474647.00,-0.64066774,4.2221203,9.095835
1421631474667.00,-0.7075786,4.099076,9.05467
1421631474688.00,-0.80757064,4.114494,9.084608
1421631474707.00,-0.62599826,4.16943,9.041498
1421631474728.00,-0.6954538,4.1122484,8.998537
1421631474748.00,-0.678539,4.165987,9.118138
1421631474767.00,-0.72134995,4.1445813,9.226214
1421631474788.00,-0.7141649,4.195176,9.112451
1421631474808.00,-0.71341646,4.060007,9.187295
1421631474830.00,-0.66970736,4.027076,9.082513
1421631474850.00,-0.6227051,4.02962,9.0744295
1421631474876.00,-0.62315416,4.0487804,9.1130495
1421631474886.00,-0.6610254,4.006868,9.081016
1421631474907.00,-0.7023395,4.0781193,9.123977
1421631474926.00,-0.6192622,4.0002813,9.131611
1421631474946.00,-0.79828995,4.1117992,9.097033
1421631474968.00,-0.6987469,4.2059536,8.991202
1421631474991.00,-0.6984476,4.2546024,9.06006
1421631475010.00,-0.7262897,4.233347,9.285641
1421631475030.00,-0.63812304,4.1231756,9.500443
1421631475047.00,-0.7975415,4.0881486,9.335636
1421631475068.00,-0.9237291,4.091292,9.0744295
1421631475087.00,-0.7355704,4.1367974,9.070687
1421631475110.00,-0.6343808,4.0770717,9.129964
1421631475130.00,-0.6566844,4.046984,9.064101
1421631475148.00,-0.72778654,4.0926394,9.26184
1421631475167.00,-0.70144135,4.199667,9.18969
1421631475187.00,-0.8440947,4.1641903,9.14149
1421631475207.00,-0.77703416,4.1863446,9.058413
1421631475227.00,-0.7050339,4.1061115,8.950337
1421631475247.00,-0.7155121,3.9844143,9.152717
1421631475266.00,-0.70787793,4.0984774,9.070088
1421631475286.00,-0.68692154,4.067791,9.081016
1421631475305.00,-0.83092207,4.0318656,9.317524
1421631475325.00,-0.6716533,3.8821769,9.277857
1421631475348.00,-0.7484436,3.9466927,9.104068
1421631475368.00,-0.67359924,4.1191344,9.062604
1421631475386.00,-0.88181627,4.2161326,9.193881
1421631475407.00,-0.79035646,3.9541771,9.252708
1421631475471.00,-0.8137079,4.0180945,9.159602
1421631475473.00,-0.7753876,4.173172,8.999735
1421631475474.00,-0.6180647,4.0203395,8.983868
1421631475545.00,-0.8083191,3.9950423,9.062005
1421631475545.00,-0.6933582,3.9802232,9.140143
1421631475546.00,-0.7509883,4.050277,9.210647
1421631475547.00,-0.72524184,4.110602,9.218131
1421631475569.00,-0.7683522,3.9598653,9.306597
1421631475632.00,-0.7140152,4.1200323,9.072484
1421631475633.00,-0.77448946,4.267925,9.080716
1421631475634.00,-0.80787003,4.080814,9.202114
1421631475675.00,-0.78945833,4.246519,9.229058
1421631475676.00,-0.8804691,4.083209,9.1621475
1421631475690.00,-0.7047345,4.162394,9.171128
1421631475740.00,-0.74649763,4.279301,8.888217
1421631475740.00,-0.54636383,4.0712337,9.03132
1421631475746.00,-0.49561936,3.996539,8.961265
1421631475773.00,-0.4617897,3.9722896,9.066945
1421631475831.00,-0.5839357,3.9118154,9.227411
1421631475832.00,-0.59501266,3.9459443,9.198372
1421631475834.00,-0.70114195,3.8848715,9.294023
1421631475847.00,-0.6506969,4.027525,9.222622
1421631475906.00,-0.67584455,4.107309,9.180709
1421631475906.00,-0.53992724,4.1743693,9.091793
1421631475907.00,-0.7009923,4.217779,9.274564
1421631475928.00,-0.7541318,4.208199,9.224717
1421631475974.00,-0.85846484,4.20296,9.106613
1421631475975.00,-0.9389973,4.320166,9.071885
1421631476021.00,-0.9889934,4.4475513,9.216334
1421631476021.00,-1.0172845,4.3306446,9.148226
1421631476068.00,-1.0710227,4.4602747,8.792715
1421631476068.00,-1.1070977,4.5315266,8.760383
1421631476069.00,-1.1662248,4.521647,8.8316345
1421631476120.00,-1.3424084,4.424499,9.2625885
1421631476122.00,-1.2024494,4.344715,9.224717
1421631476156.00,-1.4480886,5.0602274,8.855286
1421631476157.00,-0.85127974,4.3628273,9.269175
1421631476170.00,-1.2121793,4.3598337,8.781488
1421631476220.00,-1.5197896,4.8103967,8.704249
1421631476222.00,-1.0702744,4.496799,9.275611
1421631476278.00,-0.9761202,4.237089,9.213341
1421631476279.00,-0.8559201,4.700226,8.646021
1421631476280.00,-0.8273296,4.5949945,8.632848
1421631476336.00,-0.816552,4.2367897,8.9530325
1421631476336.00,-0.7282356,4.204906,9.167536
1421631476337.00,-0.8032297,4.37121,9.018745
1421631476389.00,-1.0172845,4.334237,8.915011
1421631476390.00,-0.80622345,4.2174797,8.936267
1421631476391.00,-0.8310718,4.3128314,9.114845
1421631476435.00,-0.6596782,4.3050475,9.085806
1421631476436.00,-0.71221894,4.0965314,9.080716
1421631476506.00,-0.76535845,4.1140447,9.491313
1421631476507.00,-0.60204804,4.236041,9.310339
1421631476508.00,-0.3900888,4.162843,9.168434
1421631476509.00,-0.41852966,4.1826024,9.050031
1421631476530.00,-0.36164796,4.074377,9.077423
1421631476545.00,-0.5080435,3.9377115,9.154064
1421631476566.00,-0.5535489,3.9149587,9.179661
1421631476585.00,-0.459245,3.7353323,9.255853
1421631476606.00,-0.44412643,3.7651205,9.3289
1421631476625.00,-0.4590953,3.8420603,9.330697
1421631476646.00,-0.3197351,3.942202,9.079519
1421631476665.00,-0.34937346,3.8944514,8.764574
1421631476687.00,-0.5162764,3.8655615,8.827443
1421631476706.00,-0.5616321,3.8404138,9.205407
1421631476727.00,-0.5803432,3.9363642,9.3679695
1421631476746.00,-0.57136184,3.9803727,9.377399
1421631476766.00,-0.6316864,3.9886057,9.155262
1421631476785.00,-0.52316207,3.9541771,8.990155
1421631476805.00,-0.6331833,4.076922,8.928034
1421631476825.00,-0.8508307,4.0830593,9.142987
1421631476845.00,-0.78496766,4.190386,9.376202
1421631476865.00,-0.7940987,4.122128,9.010363
1421631476888.00,-0.65114594,4.285289,7.8951817
1421631476910.00,-1.2921131,4.8662305,9.162297
1421631476929.00,-1.2660671,3.9832168,9.777517
1421631476947.00,-0.9083111,3.900439,9.595796
1421631476976.00,-0.92462724,4.120781,9.048683
1421631476996.00,-0.8704399,4.3689647,8.577763
1421631477006.00,-0.6908134,4.3724074,8.867709
1421631477033.00,-0.70009416,4.44815,9.077723
1421631477045.00,-0.8162526,4.278104,9.16589
1421631477066.00,-0.823737,4.131858,9.02608
1421631477086.00,-0.8430469,4.0650964,8.944051
1421631477106.00,-0.71700895,4.080215,9.086405
1421631477128.00,-0.7958949,4.0016284,9.457483
1421631477148.00,-0.717458,3.9329214,9.47814
1421631477166.00,-0.7225475,4.0429425,9.204808
1421631477186.00,-0.72808594,4.219875,8.848848
1421631477205.00,-0.6117778,4.3667192,8.914263
1421631477226.00,-0.75308394,4.311784,8.960367
1421631477246.00,-0.83945435,4.200565,9.193731
1421631477265.00,-0.71760774,4.1734715,9.073681
1421631477286.00,-0.7246431,4.126768,9.136551
1421631477305.00,-0.6951544,4.13081,9.086405
1421631477326.00,-0.7222481,4.00103,9.126821
1421631477348.00,-0.64845157,3.911067,9.303753
1421631477369.00,-0.6514453,4.005221,9.258397
1421631477386.00,-0.52855086,4.0439906,9.234746
1421631477406.00,-0.6544391,4.127966,9.166339
1421631477425.00,-0.6271957,4.2156835,9.156908
1421631477446.00,-0.48559022,4.2430763,9.016351
1421631477467.00,-0.6186635,4.247717,9.24253
1421631477486.00,-0.5840854,4.0718327,9.172027
1421631477505.00,-0.5438191,4.076174,8.989107
1421631477525.00,-0.5536986,3.896547,9.214389
1421631477547.00,-0.5131329,4.203858,9.296119
1421631477566.00,-0.560734,4.0953336,9.234896
1421631477586.00,-0.6553372,4.1549096,9.046738
1421631477607.00,-0.7683522,4.1354504,9.051976
1421631477645.00,-0.70293826,4.1242237,9.162746
1421631477646.00,-0.7099736,4.206702,9.21858
1421631477669.00,-0.5719606,4.236191,8.959319
1421631477688.00,-0.61537033,4.243376,8.785231
1421631477718.00,-0.6908134,4.3373804,8.818761
1421631477738.00,-0.6465056,4.210744,9.090446
1421631477755.00,-0.73467225,4.1237745,9.251512
1421631477766.00,-0.67674273,4.145479,9.198971
1421631477789.00,-0.53393966,4.1094046,8.956924
1421631477821.00,-0.48139894,4.080814,8.907527
1421631477835.00,-0.563578,3.9844143,8.909772
1421631477854.00,-0.70174074,4.1887393,8.987909
1421631477873.00,-0.94273955,4.2318497,9.109158
1421631477886.00,-0.79170364,4.0200405,9.214838
1421631477906.00,-0.74904233,4.0324645,9.261391
1421631477925.00,-0.8268805,3.9544766,9.2907295
1421631477945.00,-0.7990384,4.118835,9.268426
1421631477967.00,-0.7779323,4.2176294,9.256302
1421631477996.00,-0.8231383,4.161646,8.3869095
1421631478006.00,-1.2391232,4.422553,9.159303
1421631478026.00,-0.96519285,4.234245,9.397608
1421631478051.00,-0.97118044,4.273164,9.0832615
1421631478068.00,-0.9713301,4.3843827,8.788823
1421631478089.00,-0.8963361,4.415368,8.971145
1421631478118.00,-0.732876,4.41462,8.995244
1421631478130.00,-0.65638506,4.261937,9.081165
1421631478147.00,-0.60683805,4.1103024,9.108559
1421631478165.00,-0.5863307,4.0357575,9.194779
1421631478185.00,-0.50325346,3.926934,9.126521
1421631478206.00,-0.443378,3.8478982,9.067993
1421631478226.00,-0.5005591,4.043691,9.067993
1421631478248.00,-0.5176236,4.123026,9.208401
1421631478266.00,-0.51582736,4.1385937,9.143586
1421631478286.00,-0.6156697,4.0891967,8.962462
1421631478306.00,-0.63872176,4.2052054,9.147926
1421631478326.00,-0.6575825,4.245621,9.089548
1421631478346.00,-0.6286926,4.0558157,9.291179
1421631478370.00,-0.5815407,4.1186852,9.12233
1421631478386.00,-0.66850984,4.20296,9.123677
1421631478407.00,-0.7259903,4.0116577,9.052575
1421631478426.00,-0.61372375,4.098028,9.012459
1421631478446.00,-0.6493497,3.9728882,9.024135
1421631478468.00,-0.7830217,4.21269,9.095535
1421631478486.00,-0.62285477,4.245172,9.221724
1421631478507.00,-0.6316864,4.1204815,9.248966
1421631478526.00,-0.76221496,4.037404,9.282646
1421631478546.00,-0.7807764,4.0844064,9.334439
1421631478568.00,-0.7652087,3.9978864,9.23295
1421631478587.00,-0.837209,3.9207966,9.119486
1421631478606.00,-0.6274951,4.249513,9.077124
1421631478626.00,-0.66566575,4.0811133,9.020093
1421631478647.00,-0.55414766,4.0279737,8.87699
1421631478666.00,-0.64919996,4.2239165,8.873697
1421631478687.00,-0.6905141,4.2287064,8.968749
1421631478706.00,-0.6315367,4.0387516,9.322763
1421631478726.00,-0.6979985,3.971092,9.374406
1421631478745.00,-0.77074724,4.065396,8.976084
1421631478767.00,-0.84888476,4.0618033,9.120833
1421631478787.00,-0.8137079,4.1400905,9.138796
1421631478807.00,-0.7695497,4.072132,9.114546
1421631478825.00,-0.889151,4.1537123,9.060958
1421631478845.00,-0.8569679,4.3628273,9.144633
1421631478865.00,-0.6715036,4.316424,9.114546
1421631478885.00,-0.70623136,4.1963735,9.280102
1421631478907.00,-0.737666,4.007766,9.156159
1421631478927.00,-0.68437684,4.0387516,9.086854
1421631479001.00,-0.696801,4.0478826,9.082513
1421631479003.00,-0.6490503,4.099525,9.037007
1421631479004.00,-0.7746391,4.1936793,9.119336
1421631479008.00,-0.6167175,4.1068597,9.144783
1421631479027.00,-0.6942563,4.008963,8.923095
1421631479046.00,-0.68976563,4.1204815,8.954529
1421631479066.00,-0.70174074,4.111949,8.966804
1421631479086.00,-0.9313632,4.122577,9.144633
1421631479105.00,-0.7590715,4.00567,9.280401
1421631479126.00,-0.7569759,4.038452,9.207503
1421631479145.00,-0.66910857,4.1565566,9.049432
1421631479167.00,-0.66057634,4.2472677,8.930729
1421631479187.00,-0.78092605,4.1839495,9.093141
1421631479207.00,-0.75053924,4.1559577,9.081465
1421631479229.00,-0.75173676,4.2143364,9.036858
1421631479248.00,-0.66701293,4.036656,9.144783
1421631479265.00,-0.69979477,3.9377115,9.250314
1421631479285.00,-0.721799,4.032614,9.19927
1421631479306.00,-0.757874,4.177962,9.076376
1421631479326.00,-0.74769515,4.1556582,9.143287
1421631479346.00,-0.67868865,4.2583447,8.942104
1421631479366.00,-0.65518755,4.1724234,9.030421
1421631479386.00,-0.60429335,4.20296,9.227561
1421631479406.00,-0.8177495,4.047733,9.192534
1421631479426.00,-0.8849597,4.1864944,9.130114
1421631479446.00,-0.7590715,4.126918,9.08401
1421631479472.00,-0.7975415,4.2104445,9.118737
1421631479486.00,-0.8322693,4.0377035,9.183553
1421631479506.00,-0.74290514,4.0667434,9.19448
1421631479525.00,-0.7442523,4.2089477,9.090446
1421631479548.00,-0.76610684,4.113147,9.117241
1421631479565.00,-0.70428544,4.0993752,9.064401
1421631479585.00,-0.8690927,4.257297,9.068742
1421631479606.00,-0.5736072,4.222569,9.109756
1421631479626.00,-0.6300398,4.017945,9.17996
1421631479646.00,-0.8069719,4.0968304,9.115744
1421631479666.00,-0.81445634,4.077371,9.238039
1421631479688.00,-0.82807803,4.2119412,9.119336
1421631479709.00,-0.7620653,4.3315425,8.984167
1421631479727.00,-0.7839198,4.1796083,9.076526
1421631479747.00,-0.86041075,4.17392,8.967253
1421631479769.00,-0.8801697,4.259991,8.9811735
1421631479788.00,-0.832419,4.2363405,9.116043
1421631479807.00,-0.7590715,4.1730223,9.227262
1421631479828.00,-0.79320055,4.206253,9.222023
1421631479848.00,-0.7777826,4.1055126,9.133107
1421631479867.00,-0.83945435,4.162544,9.220376
1421631479887.00,-0.79828995,4.4071355,9.001532
1421631479907.00,-0.73572004,4.3411226,8.863817
1421631479927.00,-0.73332506,4.190835,9.070238
1421631479947.00,-0.7544311,4.218677,9.126222
1421631479968.00,-0.8228389,4.292324,9.083112
1421631479988.00,-0.7617659,4.1445813,9.080716
1421631480031.00,-0.63527894,4.0790176,9.153765
1421631480036.00,-0.73048097,4.032165,9.299711
1421631480046.00,-0.77987826,4.1588016,9.3541975
1421631480067.00,-0.7813751,4.19323,9.178014
1421631480086.00,-0.7677534,4.2170305,8.928782
1421631480118.00,-0.72673875,4.3147774,8.878338
1421631480126.00,-0.88346285,4.225713,9.018446
1421631480146.00,-0.8807684,4.1924815,8.93941
1421631480166.00,-0.81819856,4.1677833,9.067394
1421631480186.00,-0.85532135,3.999533,9.352252
1421631480206.00,-0.83541274,3.995641,9.38713
1421631480228.00,-0.83541274,4.0492296,9.149873
1421631480247.00,-0.8042775,4.2318497,9.005573
1421631480266.00,-0.7686516,4.1709266,8.881182
1421631480286.00,-0.8268805,4.199218,9.069191
1421631480306.00,-0.9253757,4.134552,9.178463
1421631480326.00,-0.85532135,4.1905355,9.063053
1421631480348.00,-0.8336165,4.061953,8.986413
1421631480367.00,-0.79963714,4.0737786,8.965755
1421631480385.00,-0.80652285,4.1291633,9.003477
1421631480406.00,-0.8092172,4.11629,9.264534
1421631480426.00,-0.7988887,4.157754,9.225166
1421631480446.00,-0.7152127,4.1715255,9.115444
1421631480470.00,-0.7138655,4.2104445,9.036858
1421631480487.00,-0.87522995,4.2170305,9.0462885
1421631480506.00,-0.81101346,4.2180786,9.145382
1421631480527.00,-0.7803273,4.220623,9.207354
1421631480546.00,-0.7728429,4.191284,9.144633
1421631480570.00,-0.7773335,4.118236,9.084458
1421631480588.00,-0.6408174,4.0538697,9.022488
1421631480606.00,-0.74889266,4.2748103,9.062903
1421631480628.00,-0.79439807,4.185147,9.099876
1421631480646.00,-0.65099627,4.039949,9.240435
1421631480666.00,-0.7137158,4.1192837,9.158256
1421631480698.00,-0.84080154,4.2293053,9.214239
1421631480707.00,-0.6330336,4.2007146,9.135802
1421631480725.00,-0.7975415,4.0785685,9.177715
1421631480746.00,-0.8842113,4.137696,9.205407
1421631480766.00,-0.7455995,4.1150928,9.197324
1421631480861.00,-0.751138,4.1550593,8.842412
1421631480862.00,-0.6712042,4.1224275,8.911419
1421631480864.00,-0.79170364,4.06824,9.02099
1421631480866.00,-0.73467225,4.069587,9.22337
1421631480867.00,-0.7930508,4.0498285,9.344169
1421631480901.00,-0.75143737,4.1502695,9.104966
1421631480926.00,-0.69066375,4.1670346,8.937614
1421631480927.00,-0.8431966,4.1826024,8.984766
1421631480946.00,-0.81026506,4.19338,9.041498
1421631480966.00,-0.7800279,4.186943,9.105266
1421631480993.00,-0.7631131,4.2364902,9.010812
1421631481005.00,-0.71281767,4.2469683,8.863369
1421631481026.00,-0.71281767,4.114943,9.208251
1421631481046.00,-0.84169966,4.0252795,9.405991
1421631481065.00,-0.70458484,4.0079155,9.301806
1421631481085.00,-0.74769515,4.031566,9.072933
1421631481105.00,-0.81026506,4.212839,8.8001995
1421631481127.00,-0.7310797,4.2474174,8.721912
1421631481182.00,-0.7038364,3.984115,8.900492
1421631481183.00,-0.68153274,4.1457787,8.971444
1421631481190.00,-0.78601545,4.1064105,9.077124
1421631481215.00,-0.55384827,4.2050557,9.206006
1421631481226.00,-0.58213943,4.143384,8.993299
1421631481246.00,-0.56312895,4.19323,8.898994
1421631481266.00,-0.6212082,4.2415795,8.91082
1421631481287.00,-0.6340814,4.2727146,9.007818
1421631481315.00,-0.4963678,4.2839413,8.445288
1421631481326.00,-0.49397278,4.33274,8.3918495
1421631481347.00,-0.21330643,4.1921825,8.610993
1421631481366.00,-0.17857864,3.9468424,8.715326
1421631481386.00,-0.20327729,3.6995568,8.869656
1421631481408.00,0.11406281,3.588787,9.110056
1421631481427.00,0.11511063,3.5618432,9.0060215
1421631481447.00,0.14654526,3.6476147,8.778046
1421631481468.00,0.007783813,3.71722,8.472082
1421631481533.00,0.11271561,3.5597475,8.709489
1421631481534.00,0.1552272,3.2471974,9.332193
1421631481535.00,0.09639954,3.0850844,9.849668
1421631481562.00,-0.05733078,3.4760714,9.8535595
1421631481566.00,-0.21315674,3.6640806,9.840536
1421631481586.00,-0.17318985,3.5844462,9.642947
1421631481605.00,-0.07738907,3.3141084,9.385034
1421631481625.00,0.10059082,3.4640963,9.608219
1421631481645.00,-0.083526306,3.3889527,9.74758
1421631481666.00,-0.041912843,3.3413515,10.135723
1421631481690.00,-0.16211289,3.565286,9.910741
1421631481706.00,0.5029541,3.1904655,9.078321
1421631481726.00,0.21570145,3.2210019,8.864865
1421631481746.00,-0.34862503,1.5937358,9.262289
1421631481766.00,-0.48813492,3.9851627,9.923314
1421631481836.00,-0.6182144,3.6793487,10.168056
1421631481837.00,-0.39637575,3.7473075,9.753568
1421631481838.00,-0.21405487,4.436774,9.385483
1421631481860.00,0.31105316,4.1968226,9.875114
1421631481868.00,0.7301816,2.6670039,10.516381
1421631481886.00,1.0087523,1.9676583,10.745555
1421631481907.00,0.44098297,3.0178742,9.51661
1421631481925.00,-0.11915222,3.1597793,9.091345
1421631481946.00,-0.004340973,3.7540433,8.876242
1421631481974.00,0.4752617,4.5755353,8.738528
1421631481986.00,0.5266049,3.9142103,9.721384
1421631482008.00,0.74410266,3.7305422,8.352181
1421631482026.00,0.7855664,4.1239243,9.392069
1421631482046.00,0.11615845,2.4525,12.094399
1421631482066.00,-1.5018269,0.96264815,10.140962
1421631482086.00,-0.5777985,2.6447003,9.968221
1421631482142.00,-0.6325845,4.898713,9.1126
1421631482147.00,-1.2605287,3.5866914,5.819149
1421631482152.00,-1.0990146,5.1768346,9.6091175
1421631482218.00,-1.0885364,5.561535,10.437046
1421631482219.00,-1.2719051,4.8964677,9.116642
1421631482221.00,-1.0964699,3.4822087,9.398805
1421631482226.00,-0.27108628,2.906057,9.291927
1421631482247.00,0.22378464,2.2348526,10.111922
1421631482266.00,-0.68841845,2.2140458,10.287657
1421631482288.00,-0.65638506,2.7882519,9.503288
1421631482306.00,-0.7695497,3.5347495,9.152417
1421631482325.00,-0.8728349,3.9549258,9.258247
1421631482346.00,-0.56208116,3.8285885,9.129365
1421631482378.00,-0.79799056,3.3361125,8.945099
1421631482390.00,-0.5255571,2.10627,9.554931
1421631482406.00,-0.010927277,1.6476238,10.053095
1421631482427.00,-0.008232879,3.026107,8.413105
1421631482447.00,-0.67329985,4.777615,7.966284
1421631482466.00,-1.5310162,3.6640806,8.201445
1421631482535.00,-1.3826747,2.3706203,8.884175
1421631482536.00,-0.812211,1.8205142,9.381741
1421631482537.00,-1.1843371,2.8051667,9.035361
1421631482548.00,-2.1754262,2.910248,10.188114
1421631482572.00,-0.8852591,2.5393195,8.573871
1421631482589.00,-1.2630734,3.984564,8.376731
1421631482605.00,-2.5750952,5.0894165,8.073012
1421631482626.00,-2.1745281,5.4699254,7.02564
1421631482646.00,-0.9144484,5.2215915,3.9811213
1421631482671.00,-1.7405804,5.0817823,11.273656
1421631482685.00,-1.2918136,2.4502547,14.83056
1421631482707.00,-1.8829345,4.0778203,8.284073
1421631482726.00,-1.9766395,4.5964913,8.854986
1421631482745.00,-3.35647,4.0603065,9.105266
1421631482806.00,-2.9210258,4.623136,7.4280033
1421631482806.00,-1.5063176,6.688391,5.8309746
1421631482807.00,-1.5685881,4.477938,6.149961
1421631482826.00,-1.4200969,4.714446,8.610245
1421631482847.00,-0.7283853,4.8608418,10.265503
1421631482866.00,-3.8559813,1.4371614,6.940617
1421631482891.00,-4.6195436,0.85562074,11.129057
1421631482906.00,0.21854553,4.283193,5.090464
1421631482927.00,0.27692413,2.0522323,1.6016693
1421631482946.00,-0.21989273,1.7456698,4.4426117
1421631482980.00,0.016465759,2.186653,5.8477397
1421631482987.00,0.48229706,2.4821384,5.9191413
1421631483010.00,0.72359526,2.373165,6.371351
1421631483028.00,0.22752686,2.0258873,6.4213467
1421631483046.00,0.5893245,-1.1109897,6.5243325
1421631483066.00,3.426375,-0.6828799,9.55523
1421631483086.00,5.9197397,0.30476624,9.152417
1421631483165.00,5.506449,0.42406815,9.395961
1421631483173.00,3.644172,-0.8734337,9.979897
1421631483175.00,5.772596,-0.52001864,10.751692
1421631483180.00,7.92976,0.02005829,10.265802
1421631483192.00,8.232281,-0.8467891,10.507849
1421631483209.00,7.570507,-2.35625,10.935809
1421631483227.00,10.976375,-1.6968713,11.006163
1421631483246.00,14.408138,-0.9755214,9.327254
1421631483265.00,14.901961,-1.5649955,8.82939
1421631483286.00,12.415332,-1.4579681,8.989856
1421631483305.00,10.081386,-1.7173787,8.80993
1421631483326.00,8.713381,-1.8019528,7.8622503
1421631483375.00,9.323512,-1.5976278,6.850205
1421631483376.00,10.727142,-1.3202546,5.8447456
1421631483401.00,11.715537,-1.0732682,6.3074336
1421631483412.00,11.442355,-0.9201366,7.1519775
1421631483438.00,10.205328,-0.5987549,3.382067
1421631483483.00,8.911419,-1.0333012,1.1015593
1421631483484.00,7.634574,-2.9337492,1.8703606
1421631483514.00,6.760841,-2.2811065,2.8315117
1421631483515.00,7.5232053,-1.6473243,2.926115
1421631483603.00,7.967182,-2.1953347,2.8677366
1421631483606.00,10.432555,-1.2957056,3.6712656
1421631483607.00,11.326796,-0.9653426,1.5371535
1421631483608.00,8.151,-1.9447559,-0.013022918
1421631483616.00,2.7794201,-2.2592518,1.3832735
1421631483626.00,2.599195,-3.669619,1.4467415
1421631483646.00,4.9632287,-7.0976405,-4.9237113
1421631483666.00,1.4030324,-4.63571,-2.685266
1421631483690.00,-1.1078463,-6.1035576,1.121917
1421631483713.00,5.9522223,-7.094946,-2.189497
1421631483727.00,14.158308,-5.7625666,-3.3301249
1421631483746.00,13.233531,-9.626183,-3.5524127
1421631483766.00,13.504168,-13.967155,1.6103512
1421631483787.00,7.3028636,-10.469678,-1.1847862
1421631483808.00,6.9701056,-8.624764,-0.6408174
1421631483828.00,6.71294,-8.462353,0.6164181
1421631483847.00,7.476652,-10.548863,0.8815169
1421631483868.00,7.66511,-11.011701,0.6661148
1421631483887.00,7.433392,-8.258027,-3.9883063
1421631484034.00,4.9651747,-4.3858795,-2.1987777
1421631484038.00,7.7136097,-2.2070105,0.122145995
1421631484042.00,6.683302,-4.02498,0.77044785
1421631484045.00,5.8092694,-6.1287055,-0.19848724
1421631484048.00,6.3704524,-7.9183836,0.40580612
1421631484053.00,4.503385,-8.298742,2.2085073
1421631484054.00,2.8810587,-8.489296,0.12798385
1421631484056.00,2.0549269,-11.942166,-0.92118436
1421631484078.00,2.230811,-9.988579,-0.31284943
1421631484087.00,3.14975,-7.467671,0.6911128
1421631484110.00,2.088008,-5.552553,-2.329905
1421631484140.00,1.117127,1.3689034,4.712351
1421631484199.00,7.15557,-6.7094975,-2.741549
1421631484200.00,4.2598414,-10.703792,-2.1719832
1421631484202.00,4.290977,-14.203065,-1.6266674
1421631484206.00,3.3034804,-10.741364,0.44951522
1421631484226.00,3.3304243,-7.2471795,0.6834787
1421631484247.00,2.4804919,-8.544831,-0.60070086
1421631484277.00,2.047143,-10.8771305,0.29309052
1421631484287.00,2.7864556,-13.401482,0.5264552
1421631484307.00,1.9806812,-5.865852,2.17842
1421631484325.00,0.53843033,-5.399122,-3.5444791
1421631484347.00,0.7515871,-7.6073303,-3.683091
1421631484366.00,1.2612772,-9.348959,-1.0755135
1421631484429.00,1.1117381,-7.9891863,-0.96953386
1421631484430.00,0.7836205,-3.7089872,-2.6738896
1421631484431.00,-0.88885164,-5.799091,-3.8212538
1421631484452.00,-1.6890875,-5.552553,1.5756235
1421631484466.00,-1.2338841,-3.8435574,1.1051518
1421631484486.00,-1.2448114,-4.547394,1.8049465
1421631484506.00,-1.3470488,-4.9870296,2.7949877
1421631484526.00,-1.1653267,-3.0904734,0.31539413
1421631484546.00,-4.7403426,-8.782387,0.11002121
1421631484566.00,-12.341985,-18.112335,8.023765
1421631484589.00,-0.99977094,-13.662239,1.0222243
1421631484612.00,0.355361,-8.800798,-9.922565
1421631484626.00,-4.2312512,-11.444601,-3.9803727
1421631484646.00,-4.65487,-6.5158005,-1.267115
1421631484666.00,-3.6491117,-3.7098854,0.9412427
1421631484686.00,-4.964726,-9.108259,3.4161959
1421631484708.00,-2.1589603,-7.9787083,-3.0469139
1421631484785.00,-2.958448,-11.974499,1.2231065
1421631484786.00,-2.1805155,-12.244537,0.6831793
1421631484787.00,-2.9542565,-8.642279,0.70712954
1421631484788.00,-3.9276824,-8.913215,1.271007
1421631484808.00,-6.8868785,-6.796467,-1.726809
1421631484826.00,-6.4348187,-9.167536,0.97492266
1421631484846.00,-5.713768,-9.126521,-0.0703537
1421631484865.00,-4.292324,-6.94855,-1.7170793
1421631484886.00,-4.084706,-8.326285,-1.9055374
1421631484908.00,-3.0422735,-9.488319,0.95097244
1421631484926.00,-3.0931678,-9.38713,1.0000703
1421631484946.00,-3.9814205,-9.147029,-0.15388
1421631484965.00,-4.357738,-8.951835,-0.025147704
1421631484985.00,-4.51566,-8.70904,0.024099885
1421631485006.00,-4.690047,-8.517288,0.26554778
1421631485025.00,-4.9044013,-8.581355,0.5763016
1421631485092.00,-4.921316,-8.481513,0.16974701
1421631485093.00,-4.853657,-8.475675,-0.103285216
1421631485094.00,-4.6045747,-8.741971,0.26779312
1421631485108.00,-4.4240503,-8.889713,0.50235534
1421631485127.00,-3.9902523,-10.409802,6.1915746
1421631485145.00,-4.3768983,-10.897489,-2.5430617
1421631485166.00,-3.6815941,-8.275392,-2.3345454
1421631485187.00,-3.549868,-8.619376,2.1400995
1421631485206.00,-3.4893937,-8.954978,2.141297
1421631485226.00,-3.8320313,-8.613238,0.8837622
1421631485247.00,-3.8947508,-8.950038,0.5366341
1421631485266.00,-4.3794427,-9.1483755,0.6505472
1421631485286.00,-4.9207172,-8.727152,0.51118696
1421631485306.00,-5.0039444,-8.646918,0.042062532
1421631485326.00,-4.773723,-8.584948,0.4233197
1421631485348.00,-4.522096,-8.759634,0.72359526
1421631485421.00,-4.3379793,-8.697214,0.9301657
1421631485422.00,-4.1608973,-8.61728,0.7074289
1421631485423.00,-4.2180786,-8.735535,0.52480865
1421631485428.00,-4.2954674,-8.869955,0.63932055
1421631485447.00,-4.230203,-8.870554,0.57001466
1421631485466.00,-4.098926,-8.797056,0.5040019
1421631485486.00,-4.224515,-8.781638,0.649649
1421631485506.00,-4.647685,-8.535101,0.75278455
1421631485527.00,-4.8481183,-8.517887,0.68018556
1421631485555.00,-4.536317,-8.700507,0.72793627
1421631485568.00,-4.389023,-8.743767,0.88466036
1421631485587.00,-4.382886,-8.784633,0.9008267
1421631485605.00,-4.527036,-8.789871,0.91325086
1421631485625.00,-4.5460463,-8.667127,0.9472302
1421631485646.00,-4.333189,-8.615185,0.9858499
1421631485665.00,-4.1787105,-8.71817,0.9092093
1421631485686.00,-4.2352924,-8.727751,1.2027489
1421631485744.00,-4.189338,-8.572673,1.5467335
1421631485746.00,-4.1585026,-8.589738,1.5278728
1421631485747.00,-4.1632924,-8.67506,1.4379098
1421631485768.00,-4.1588016,-8.78568,1.2510983
1421631485786.00,-4.1766148,-8.822055,1.1346405
1421631485806.00,-3.7425175,-8.775501,1.1288027
1421631485826.00,-3.7248542,-8.9706955,1.520987
1421631485846.00,-3.9544766,-9.00198,1.5524217
1421631485866.00,-3.7934115,-8.862171,1.5977774
1421631485886.00,-3.6170783,-9.151968,1.6239729
1421631485906.00,-3.4221835,-9.425449,1.583108
1421631485930.00,-3.3656013,-9.192085,1.3554313
1421631485946.00,-3.416645,-9.015452,1.5802639
1421631485966.00,-3.3992813,-9.039402,1.4310242
1421631485986.00,-3.6666253,-9.020093,1.3362712
1421631486005.00,-3.7273989,-8.923992,1.6241226
1421631486026.00,-3.7761974,-8.897797,1.7630337
1421631486099.00,-3.959117,-8.904234,1.8519489
1421631486100.00,-3.9862106,-8.754695,1.6317568
1421631486100.00,-3.6314483,-8.701855,1.4858103
1421631486110.00,-3.1591804,-8.845256,1.3864169
1421631486125.00,-2.7138565,-9.087303,1.249302
1421631486146.00,-2.66401,-9.426947,1.3844709
1421631486166.00,-2.7330167,-9.390273,1.3651612
1421631486186.00,-3.0856833,-9.408834,1.3307327
1421631486206.00,-3.070415,-9.110206,1.4672488
1421631486226.00,-2.9942236,-9.144334,1.0551558
1421631486246.00,-3.2605197,-8.804241,0.19354752
1421631486267.00,-3.307522,-8.702454,-0.59755737
1421631486286.00,-3.5582507,-9.178164,-1.0527607
1421631486306.00,-3.661386,-9.935589,-1.311872
1421631486326.00,-3.1419663,-11.397299,-0.6126759
1421631486387.00,-2.893932,-12.424763,0.21839584
1421631486388.00,-4.2763076,-11.706856,-0.443378
1421631486389.00,-5.1456995,-11.085648,-2.4043002
1421631486406.00,-5.604196,-11.397598,-4.3456135
1421631486425.00,-5.7564297,-12.438833,-6.3876667
1421631486446.00,-5.626949,-11.957435,-5.90522
1421631486466.00,-6.3539867,-10.625954,0.81161225
1421631486486.00,-5.65988,-10.884615,8.88657
1421631486506.00,-4.8111453,-9.256302,8.603659
1421631486526.00,-3.6895275,-10.51728,2.8147466
1421631486549.00,-3.0755045,-10.143058,-2.8249254
1421631486567.00,-2.9654832,-9.461824,-3.0344896
1421631486586.00,-3.988905,-8.152198,-1.9516416
1421631486605.00,-4.0342607,-7.167545,0.007484436
1421631486626.00,-3.4028738,-6.883885,0.6578819
1421631486645.00,-2.994972,-6.5204406,0.5960605
1421631486666.00,-3.4744248,-6.3023443,-0.19399658
1421631486735.00,-3.667224,-7.236402,-0.24743545
1421631486736.00,-3.5973194,-7.817643,-1.3500426
1421631486736.00,-2.943479,-8.116422,-2.4327412
1421631486746.00,-2.8671377,-7.472162,-3.3453932
1421631486767.00,-3.1311886,-7.015611,-4.54934
1421631486785.00,-2.4893234,-7.8305163,-5.848338
1421631486806.00,-1.4865587,-8.90603,-5.71766
1421631486827.00,-1.5052698,-8.105944,-4.641099
1421631486847.00,-1.6555573,-6.0433826,-3.7824843
1421631486870.00,-1.5742763,-4.0656953,-3.3759298
1421631486886.00,-1.6329542,-2.7714868,-3.1799872
1421631486906.00,-2.403402,-1.9914588,-3.0223649
1421631486926.00,-4.7853985,-2.330354,0.2389032
1421631486946.00,-8.633896,-13.244608,-0.5783972
1421631486966.00,-2.9615912,-18.719173,-5.980813
1421631486986.00,-3.4646952,-8.91097,1.7988094
1421631487006.00,-6.5650477,-2.433789,3.3193474
1421631487073.00,-6.984176,-0.626597,2.9801528
1421631487074.00,-7.8959303,-3.577261,3.044519
1421631487075.00,-9.066646,-10.941647,6.822812
1421631487085.00,-5.641768,-17.847536,8.352331
1421631487106.00,0.7056326,-19.224972,0.1978885
1421631487126.00,1.1256592,-13.943205,-2.7171497
1421631487147.00,-1.4534775,-12.258308,1.681154
1421631487169.00,-2.6923013,-12.9358,2.2541625
1421631487191.00,-4.278403,-13.288317,-1.2186159
1421631487206.00,-2.7686427,-12.242741,-5.5419254
1421631487226.00,-1.5576608,-12.208612,-6.7108445
1421631487246.00,-0.013022918,-11.949651,-6.8412237
1421631487266.00,0.7355704,-9.274863,-6.727161
1421631487286.00,-0.30177248,-7.732171,-8.546477
1421631487306.00,-0.15777192,-7.5112305,-9.969269
1421631487326.00,-0.4460724,-6.1742105,-7.5520954
1421631487382.00,1.0109977,-4.552633,-2.1176462
1421631487383.00,0.68407744,-6.0402393,4.9413743
1421631487394.00,-1.348845,-12.056229,7.879315
1421631487406.00,-6.052214,-14.492113,2.1709356
1421631487426.00,-11.716585,-18.64927,-5.640421
1421631487447.00,-13.7276535,-18.929935,-6.827602
1421631487467.00,-12.280313,-19.271824,-5.6751485
1421631487487.00,-9.255254,-17.10448,8.527317
1421631487519.00,-3.4064662,-16.949404,2.387535
1421631487526.00,0.42167312,-14.021791,1.325793
1421631487546.00,-0.3556604,-8.7157755,2.253863
1421631487566.00,-1.9800824,-5.467081,3.3310232
1421631487586.00,-4.0992255,-2.424508,4.495601
1421631487607.00,-6.1960654,-0.37856278,2.04849
1421631487626.00,-6.6244745,3.4196389,-0.5167255
1421631487646.00,-7.003486,6.556815,0.27827132
1421631487706.00,-5.637277,5.331014,0.3332071
1421631487707.00,-2.5791366,-0.59351575,-1.6417859
1421631487708.00,3.1322365,-11.292816,-15.120058
1421631487728.00,-0.352966,-18.453775,-15.983612
1421631487746.00,-0.11032059,-5.373376,5.8704925
1421631487768.00,-3.6670742,-5.7074814,10.900183
1421631487786.00,-14.256952,-16.910336,8.127199
1421631487806.00,-6.850804,-7.8179426,7.2884936
1421631487826.00,-7.2504725,-4.704417,4.9044013
1421631487846.00,-9.073531,-11.933784,9.30959
1421631487867.00,-8.596324,-18.282082,10.440189
1421631487886.00,-5.2510805,-18.630558,-7.7185493
1421631487906.00,-0.022752685,-16.860489,-4.6586123
1421631487926.00,2.0137625,-17.146992,2.180815
1421631487947.00,0.006137237,-17.235159,-1.271007
1421631487967.00,-2.15911,-13.900245,-9.228759
1421631488041.00,-1.2593312,-10.952125,-10.039023
1421631488042.00,-1.2281959,-9.530231,-8.417895
1421631488043.00,-1.4739848,-6.841972,-6.9701056
1421631488053.00,-0.039218444,-5.57336,-10.957514
1421631488066.00,2.4804919,-3.3563204,-4.7568083
1421631488086.00,1.0603949,-2.0935464,2.9120443
1421631488106.00,-0.77329195,-0.30641282,2.4721093
1421631488126.00,-2.3049068,-1.1529025,1.8380278
1421631488146.00,-3.2689023,-9.865235,-0.9596544
1421631488166.00,-7.338789,-18.232534,-6.105803
1421631488186.00,-12.917388,-18.85599,-3.179089
1421631488206.00,-11.056159,-17.068705,-1.972598
1421631488226.00,-8.320598,-18.173708,6.3824277
1421631488246.00,-4.175417,-14.473402,2.60638
1421631488266.00,-0.26509872,-13.306279,2.6238935
1421631488286.00,-0.98450273,-8.561746,2.0411553
1421631488395.00,-2.32257,-5.263654,2.7663972
1421631488396.00,-3.998485,-1.4745836,2.018702
1421631488397.00,-5.6236553,2.1321661,1.2322376
1421631488398.00,-6.346652,4.1607475,3.1346314
1421631488399.00,-6.400091,3.508554,2.150428
1421631488410.00,-2.6614654,-0.4831952,-1.0572515
1421631488427.00,2.8611503,-8.690179,-15.376624
1421631488446.00,0.91744214,-18.099762,-13.612692
1421631488466.00,2.4551945,-9.173075,-11.9691105
1421631488486.00,-0.4763095,5.419929,13.193414
1421631488506.00,-5.4823494,-4.3471103,9.950707
1421631488531.00,-17.599352,-17.357306,10.620564
1421631488546.00,-7.942783,-11.40164,6.4604154
1421631488566.00,-6.800359,-9.264235,5.930667
1421631488586.00,-8.310418,-12.779076,6.4363155
1421631488606.00,-8.282277,-18.056501,2.0666025
1421631488627.00,-1.8681152,-17.08158,-4.195326
1421631488698.00,1.591191,-17.16331,-4.696783
1421631488699.00,1.379681,-18.280586,-2.7437942
1421631488700.00,-0.0092807,-14.5525875,-7.010222
1421631488709.00,-1.2313395,-10.598111,-9.328451
1421631488726.00,-1.387315,-9.149873,-6.4436502
1421631488746.00,-0.19055374,-7.35256,-8.384066
1421631488766.00,2.6664052,-5.49642,-7.512877
1421631488786.00,4.0333624,-3.5332525,-1.4043796
1421631488806.00,0.026345216,-1.8675165,1.1720626
1421631488826.00,-1.3699511,0.2996768,0.64291304
1421631488846.00,-2.2861958,-1.7687219,0.19699036
1421631488866.00,-2.405797,-11.025473,-1.7220191
1421631488886.00,-6.6008234,-18.274897,-6.1535535
1421631488908.00,-11.318413,-19.237995,-5.688471
1421631488926.00,-9.484427,-18.57607,0.67734146
1421631488946.00,-7.7651024,-16.774267,4.8816485
1421631489022.00,-2.3743625,-15.572866,2.590513
1421631489023.00,0.7933502,-12.465628,1.2301419
1421631489025.00,-1.0788066,-8.031848,1.7486637
1421631489026.00,-2.3281088,-3.9489381,2.8113039
1421631489052.00,-4.5662546,1.0563533,2.0728893
1421631489066.00,-6.2863274,4.487219,0.42137375
1421631489086.00,-5.968688,5.296137,0.87148774
1421631489106.00,-3.7738023,2.49097,-0.4816983
1421631489126.00,0.15447876,-3.822152,-7.483987
1421631489146.00,2.940036,-16.040045,-16.445251
1421631489166.00,2.7848089,-17.60968,-18.09542
1421631489186.00,-1.3846207,-4.1737704,7.23251
1421631489206.00,-7.8962297,-7.0542307,10.471325
1421631489226.00,-12.223581,-11.130404,10.309062
1421631489246.00,-9.24762,-3.8791833,6.7216225
1421631489266.00,-10.384206,-10.135573,9.114098
1421631489286.00,-9.862989,-15.930922,13.775404
1421631489307.00,-6.384074,-19.084564,-2.6683512
1421631489375.00,0.18381774,-16.679665,-10.530452
1421631489376.00,0.65518755,-16.61485,1.1475137
1421631489377.00,-0.17797989,-17.779726,-0.14175522
1421631489389.00,-0.16375946,-15.703694,-9.783356
1421631489406.00,0.062420197,-12.843592,-10.697354
1421631489426.00,-1.0475217,-10.958712,-7.067104
1421631489446.00,-0.6439609,-7.385342,-9.237291
1421631489466.00,2.5577312,-4.890929,-9.705368
1421631489486.00,3.3114138,-3.2796798,-1.179098
1421631489509.00,0.35775605,-1.6197816,2.355801
1421631489526.00,-0.47705796,0.09654923,0.65907943
1421631489546.00,-0.7084767,-2.6946964,1.3395643
1421631489566.00,-1.3073813,-13.0208235,-1.69268
1421631489586.00,-6.3146186,-18.60122,-6.4426026
1421631489652.00,-10.92563,-19.41777,-5.858068
1421631489654.00,-8.498727,-19.539917,0.19070344
1421631489655.00,-7.7927947,-18.984272,5.149891
1421631489668.00,-1.0719209,-16.858543,3.2925532
1421631489686.00,1.556613,-12.0459,1.2819343
1421631489706.00,-0.8656499,-8.277786,1.5905924
1421631489726.00,-3.035388,-4.687203,1.9984941
1421631489747.00,-5.7119718,0.3131488,1.3736933
1421631489766.00,-8.204887,4.3069935,-1.0648856
1421631489786.00,-8.186326,5.940846,-0.52480865
1421631489806.00,-5.64566,4.4170146,0.24519013
1421631489826.00,-0.7485933,-1.0277628,-0.8614586
1421631489846.00,4.4560833,-11.059452,-9.8590975
1421631489866.00,3.064278,-17.8652,-14.77742
1421631489886.00,2.8301647,-8.909922,-8.851244
1421631489906.00,-0.6436615,-0.41837996,9.536519
1421631489926.00,-9.653126,-11.879597,8.667576
1421631489999.00,-11.82975,-16.637453,7.6556797
1421631490001.00,-4.6363087,-7.1700897,3.4009278
1421631490002.00,-8.058193,-7.028634,4.574038
1421631490013.00,-9.053174,-11.4818735,7.7886033
1421631490026.00,-8.628656,-17.627644,2.270778
1421631490046.00,-0.48843428,-18.593136,-5.322781
1421631490066.00,4.4848237,-17.649797,-0.17603393
1421631490088.00,3.2022908,-18.332079,-0.8267308
1421631490106.00,-0.6024971,-17.524807,-6.1230173
1421631490126.00,-1.2740006,-13.232932,-9.346563
1421631490146.00,-0.3902385,-11.357033,-8.7439165
1421631490166.00,-1.8035994,-7.224726,-5.0389714
1421631490186.00,-1.3114228,-4.587061,-8.647517
1421631490206.00,1.9583775,-1.791325,-6.126011
1421631490227.00,3.1292427,-0.9580078,-1.8859282
1421631490294.00,-0.08083191,-0.1857637,0.55549484
1421631490295.00,-1.145418,-1.5542179,1.5631993
1421631490296.00,-1.2249027,-9.531579,0.98225737
1421631490306.00,-3.0294003,-18.200651,-0.66162413
1421631490326.00,-13.731545,-19.363283,-6.446345
1421631490347.00,-13.477524,-17.160913,-3.4587076
1421631490367.00,-9.739048,-19.011366,-3.5112484
1421631490387.00,-7.4347396,-17.508492,6.995253
1421631490406.00,0.045954436,-16.40304,4.9211664
1421631490426.00,2.376907,-9.381142,1.1461666
1421631490446.00,-1.5468832,-5.757178,3.0660741
1421631490466.00,-4.2132883,-2.030677,3.4664915
1421631490486.00,-6.0089545,1.8842816,2.6629624
1421631490506.00,-6.3574295,5.849536,2.0327728
1421631490527.00,-5.9121056,7.293433,1.1249107
1421631490549.00,-3.7630248,5.5154305,-1.8961071
1421631490566.00,1.9585272,0.2932402,-7.793693
1421631490626.00,6.9487,-15.597565,-17.31659
1421631490627.00,4.1378455,-18.933977,-18.829494
1421631490628.00,-2.4286995,-4.4786863,8.785081
1421631490650.00,-7.481143,-8.133187,8.939111
1421631490666.00,-11.813284,-13.225148,12.00279
1421631490686.00,-10.835816,-2.928061,9.069041
1421631490706.00,-14.549145,-8.026309,7.103628
1421631490726.00,-14.039305,-15.310013,11.89202
1421631490746.00,-7.80941,-18.993402,0.58483386
1421631490767.00,2.0007393,-19.145336,-10.311607
1421631490790.00,4.3815384,-18.21637,-0.99363375
1421631490806.00,3.6485128,-19.17258,-2.9157865
1421631490831.00,2.0389102,-16.8069,-7.719447
1421631490846.00,1.3953983,-11.750115,-10.747051
1421631490866.00,-0.19160156,-9.75207,-6.5984287
1421631490887.00,-0.5019063,-6.181246,-8.490344
1421631490906.00,2.2767653,-3.4956808,-7.8198886
1421631490964.00,4.049529,-1.757196,-2.869383
1421631490965.00,1.3609699,-1.4672488,1.1837384
1421631490966.00,-0.39772293,-0.7373666,0.33694932
1421631490990.00,-1.6383431,-3.165617,0.60459274
1421631491006.00,-1.047372,-13.568983,-1.1509566
1421631491026.00,-6.234236,-18.763332,-6.3456044
1421631491046.00,-11.991264,-18.285376,-4.8918276
1421631491066.00,-9.563462,-19.045645,-3.1713052
1421631491087.00,-5.043911,-19.508331,5.7625666
1421631491106.00,-2.1142035,-17.478703,6.0891876
1421631491126.00,1.215173,-13.301788,2.2115011
1421631491146.00,0.07948471,-7.8885956,2.6993368
1421631491166.00,-2.7738817,-4.088897,3.0335915
1421631491189.00,-5.848937,0.74604857,2.6256897
1421631491207.00,-7.3359447,4.4484496,0.7518864
1421631491226.00,-7.024742,6.228847,1.45707
1421631491246.00,-5.1485434,6.010751,0.53588563
1421631491307.00,-0.45699966,1.4328204,-1.4000386
1421631491308.00,7.5073385,-11.994408,-15.408059
1421631491309.00,5.7134686,-18.549128,-18.941011
1421631491326.00,0.49157774,-12.686419,1.890868
1421631491346.00,-6.783743,-10.981613,10.515034
1421631491366.00,-11.046728,-13.588892,12.610826
1421631491386.00,-8.729397,-0.7092252,10.733729
1421631491415.00,-12.089759,-1.7775536,7.955806
1421631491432.00,-12.505445,-15.021263,9.89188
1421631491446.00,-8.841064,-18.96092,7.4374337
1421631491466.00,0.3091072,-19.201769,-14.154266
1421631491487.00,4.579876,-17.593964,-4.643045
1421631491506.00,3.6447706,-19.059565,-1.8402731
1421631491526.00,2.4809408,-16.64898,-6.5949855
1421631491546.00,2.0752845,-11.49325,-11.498339
1421631491614.00,0.9804611,-10.1575775,-6.7145867
1421631491615.00,-0.19190094,-6.3218036,-7.4654255
1421631491616.00,1.2165202,-3.3515306,-9.577534
1421631491626.00,3.9344184,-1.2648697,-3.0494585
1421631491646.00,1.2963043,-0.19714004,1.0789562
1421631491666.00,-0.32811767,-0.90441924,2.7298732
1421631491686.00,-0.43828857,-3.6649787,2.0550764
1421631491707.00,1.8058448,-14.231206,0.013471985
1421631491735.00,-3.3769774,-18.853443,-5.9098606
1421631491752.00,-9.940379,-18.545984,-3.831582
1421631491766.00,-9.326805,-18.32175,-2.0613635
1421631491786.00,-5.714217,-19.363882,2.8864477
1421631491806.00,-4.1775126,-17.876276,5.048851
1421631491835.00,0.9662407,-15.395036,4.479435
1421631491848.00,1.3913567,-9.003327,2.344874
1421631491866.00,-1.5858023,-5.375172,3.200794
1421631491886.00,-4.4786863,-1.2305909,3.222499
1421631491961.00,-6.452033,2.0151095,0.6593788
1421631491962.00,-6.697223,5.032385,-0.28321105
1421631491964.00,-6.017786,5.125791,-0.123343505
1421631491968.00,-3.589835,1.748963,-0.8228389
1421631491988.00,3.6881804,-5.553751,-13.140574
1421631492010.00,6.2754,-17.67315,-16.016094
1421631492026.00,3.9309754,-13.347444,-13.007201
1421631492046.00,-0.41882905,2.4945626,12.013418
1421631492068.00,-7.174281,-7.163653,7.8781176
1421631492087.00,-15.7924595,-17.881964,11.340418
1421631492106.00,-7.9183836,-7.0900064,6.1559486
1421631492126.00,-8.985964,-5.825885,6.2339363
1421631492146.00,-9.330847,-12.336596,10.506053
1421631492166.00,-7.0715947,-18.464252,3.6780016
1421631492186.00,1.0379416,-18.90838,-10.001152
1421631492206.00,4.704118,-17.455502,-0.90052736
1421631492226.00,3.812871,-19.193537,-1.486409
1421631492246.00,2.578987,-18.226698,-5.941445
1421631492330.00,2.4403753,-13.200001,-10.73313
1421631492331.00,2.2852976,-11.331137,-8.246651
1421631492332.00,-0.010927277,-7.2298155,-6.43407
1421631492333.00,-0.43304947,-3.9881566,-8.313113
1421631492347.00,3.3699422,-1.7461189,-3.7592826
1421631492368.00,2.628085,-1.0945239,-0.87552935
1421631492388.00,-0.23785537,-0.76416093,0.16510665
1421631492406.00,-1.2085867,-3.1213093,1.0077045
1421631492426.00,0.54322034,-12.313095,0.7300319
1421631492448.00,-3.084935,-18.555414,-4.773723
1421631492468.00,-9.989178,-19.44157,-4.445156
1421631492487.00,-8.616383,-19.18755,-1.6003221
1421631492512.00,-2.8797116,-19.527641,2.4276516
1421631492528.00,-2.4215145,-16.495697,6.9436107
1421631492631.00,1.3630655,-12.213402,3.2937505
1421631492632.00,0.048948213,-8.205786,3.4155972
1421631492633.00,-2.203867,-4.769831,4.5647573
1421631492634.00,-4.654122,-0.54875886,3.0368848
1421631492635.00,-6.5984287,3.2239957,0.7577243
1421631492649.00,-7.186705,5.620512,1.6895366
1421631492666.00,-5.955216,5.0244517,0.5956114
1421631492686.00,-3.552263,3.059338,-2.7199938
1421631492706.00,4.1926312,-7.529792,-14.405892
1421631492726.00,6.312523,-17.94184,-15.304474
1421631492746.00,4.228856,-8.595276,-1.5453863
1421631492766.00,-0.436642,0.33081207,11.125464
1421631492786.00,-12.055032,-13.243859,10.034982
1421631492808.00,-10.9543705,-14.775924,9.650132
1421631492826.00,-8.049661,-5.8487873,5.224885
1421631492847.00,-10.479408,-7.7285786,6.6609983
1421631492900.00,-10.98341,-15.797848,8.018375
1421631492901.00,-6.627468,-19.0666,1.7441729
1421631492910.00,2.730023,-18.738333,-8.72835
1421631492926.00,5.6588326,-19.221079,-3.6067498
1421631492946.00,5.1165104,-19.16794,-2.9436288
1421631492966.00,4.373306,-14.320869,-8.393945
1421631492986.00,3.9579194,-10.931618,-9.6898
1421631493006.00,1.1463162,-9.270971,-7.286398
1421631493029.00,0.8674461,-5.406158,-9.347761
1421631493048.00,4.148024,-2.690505,-5.1542315
1421631493066.00,3.4934354,-1.0801538,0.35850447
1421631493086.00,0.80487627,-0.66536635,1.0982661
1421631493106.00,-0.3080594,-1.1286529,0.17244141
1421631493126.00,-1.0078541,-5.7082295,-0.9976753
1421631493146.00,2.3710694,-16.73984,0.24294479
1421631493166.00,-5.432054,-19.194735,-6.118826
1421631493234.00,-9.200169,-18.084793,-2.446213
1421631493235.00,-7.4745564,-18.94266,-0.6237529
1421631493236.00,-5.85223,-19.223475,3.0421238
1421631493247.00,-0.73347473,-16.717985,5.0307384
1421631493266.00,2.2932312,-11.427087,2.0642076
1421631493286.00,0.51462984,-7.5869727,2.0287313
1421631493306.00,-2.2029688,-3.929329,2.4989035
1421631493327.00,-5.307214,0.3198848,2.2496717
1421631493347.00,-7.1100645,3.2105236,1.6226257
1421631493366.00,-6.4979873,4.0574627,2.320325
1421631493386.00,-5.290149,3.3421001,1.2000545
1421631493407.00,-0.9342073,0.42751098,-1.4153068
1421631493426.00,8.008347,-13.156441,-15.362853
1421631493446.00,7.119944,-18.225649,-16.031363
1421631493467.00,1.1433225,-0.8279283,5.3919373
1421631493486.00,-2.772385,-0.48484176,12.105776
1421631493571.00,-15.047309,-15.173197,13.355227
1421631493572.00,-9.818682,-14.094541,6.724616
1421631493573.00,-7.1380563,-5.259912,3.083887
1421631493574.00,-9.745484,-9.796378,7.6616673
1421631493586.00,-7.948471,-17.315691,8.8653145
1421631493607.00,-3.1407688,-19.017204,0.044008482
1421631493626.00,3.7544925,-17.23486,-10.067315
1421631493646.00,4.152365,-19.084265,-3.9074743
1421631493667.00,4.2409806,-17.82164,-3.9383101
1421631493688.00,4.3761497,-12.793745,-10.602003
1421631493706.00,3.1395712,-11.433374,-7.987989
1421631493727.00,1.0945239,-8.161328,-7.284003
1421631493746.00,1.7805474,-4.126619,-8.089627
1421631493766.00,3.8217027,-1.393602,-3.8666093
1421631493786.00,1.9481987,-0.6716533,-0.028889922
1421631493812.00,-0.23680755,-0.16600479,1.6136444
1421631493826.00,-1.3579761,-1.1103909,1.3525872
1421631493846.00,-0.77433974,-7.4116874,-1.2732522
1421631493910.00,3.693719,-17.82134,-1.4908997
1421631493911.00,-7.311695,-19.341728,-7.3334002
1421631493912.00,-8.584049,-18.288519,-0.9321117
1421631494009.00,-5.2024317,-19.405346,1.5486795
1421631494010.00,-4.42899,-17.920584,2.757416
1421631494011.00,1.0912308,-15.262711,3.8645136
1421631494012.00,2.6617649,-9.689651,1.6307089
1421631494013.00,-0.5439688,-5.52546,2.665956
1421631494026.00,-3.4477804,-1.319057,2.2150936
1421631494058.00,-6.8945127,1.5998731,1.5881974
1421631494066.00,-7.7366614,3.7718563,2.4278014
1421631494087.00,-6.1393332,3.8312829,1.5202386
1421631494106.00,-4.1983194,2.301015,0.7794292
1421631494126.00,3.6738102,-3.4307158,-13.20988
1421631494146.00,8.046967,-17.054035,-16.434324
1421631494169.00,5.8110657,-10.493179,-11.927796
1421631494236.00,-1.2725039,2.3990612,10.992242
1421631494237.00,-9.876013,-11.9779415,12.0414095
1421631494238.00,-12.226725,-15.374379,10.177785
1421631494246.00,-8.018226,-6.415958,4.1489224
1421631494266.00,-9.401949,-9.135503,8.854088
1421631494287.00,-8.889863,-17.06661,9.303753
1421631494306.00,-3.7425175,-19.239042,-2.5186625
1421631494327.00,3.3346157,-17.371675,-10.928025
1421631494348.00,4.450246,-18.685194,-3.0115874
1421631494366.00,4.594396,-17.894388,-2.2008734
1421631494386.00,4.6993275,-12.708872,-9.526938
1421631494406.00,3.607049,-11.07023,-8.110884
1421631494426.00,1.7315991,-8.69452,-6.5123577
1421631494452.00,1.4452446,-4.5614643,-7.8592567
1421631494467.00,3.6973114,-2.1897962,-5.603597
1421631494488.00,2.423161,-1.2858261,-0.12528946
1421631494585.00,0.05478607,-0.75368273,0.95875627
1421631494586.00,-0.9303154,-0.4391867,0.022453308
1421631494587.00,-0.9023236,-5.2533255,0.368833
1421631494588.00,3.7185671,-16.156801,0.015717316
1421631494589.00,-2.3087988,-19.115398,-6.340066
1421631494606.00,-8.561296,-19.517763,-3.4732275
1421631494627.00,-7.0971913,-19.563568,-0.24608825
1421631494646.00,-3.0710137,-19.162102,3.2448025
1421631494667.00,-1.1762539,-17.325123,5.897586
1421631494688.00,1.5760726,-12.101884,2.107318
1421631494706.00,0.2642006,-8.402777,2.4301963
1421631494726.00,-2.20252,-4.0116577,2.8605514
1421631494746.00,-4.5902047,0.6638695,1.9791843
1421631494766.00,-6.779552,3.5009198,0.41703278
1421631494786.00,-7.1248837,4.8277607,1.6429834
1421631494806.00,-6.22735,3.2471974,0.4788542
1421631494829.00,-0.34323624,-0.5113367,-2.9731174
1421631494887.00,11.737392,-15.024107,-17.276474
1421631494888.00,5.142556,-18.37444,-15.756983
1421631494889.00,2.5512946,-2.4990532,-4.012556
1421631494906.00,-2.0924985,3.643124,10.377919
1421631494928.00,-10.576856,-10.090218,12.0237465
1421631494947.00,-15.0133295,-18.290165,9.640852
1421631494966.00,-6.081703,-9.77647,0.22453308
1421631494987.00,-5.507048,-7.3268137,4.2824445
1421631495008.00,-5.15977,-13.227243,8.1722555
1421631495026.00,-4.161646,-18.582058,3.275788
1421631495046.00,0.91504717,-16.673826,-4.2382865
1421631495066.00,3.797603,-17.082327,-1.8474582
1421631495086.00,2.7301726,-19.17348,-1.9252963
1421631495106.00,2.1781206,-17.684076,-5.5477633
1421631495126.00,2.066303,-13.260624,-10.465187
1421631495153.00,2.7279272,-10.54093,-9.19942
1421631495204.00,1.9577788,-7.4724607,-6.6232767
1421631495207.00,1.2570859,-3.3211436,-6.4199996
1421631495208.00,4.3334885,-1.4585669,-6.029761
1421631495227.00,3.5889368,-1.7031583,-0.459245
1421631495246.00,0.7710466,-1.4024336,2.5114775
1421631495267.00,-0.29758117,-1.8106347,2.4363337
1421631495286.00,0.8970845,-8.848549,-0.3742218
1421631495307.00,2.57749,-17.856218,-2.3555017
1421631495326.00,-4.960834,-19.34652,-5.5471644
1421631495346.00,-9.042846,-19.53423,-2.9162357
1421631495366.00,-6.0751166,-19.41328,-2.2185366
1421631495386.00,-1.4605129,-19.554886,4.129313
1421631495406.00,-0.44277924,-17.906513,4.490961
1421631495429.00,2.4560926,-12.842244,2.7680438
1421631495448.00,0.25656646,-7.9683795,2.3385868
1421631495516.00,-2.1152513,-4.152515,3.1045442
1421631495517.00,-5.3024235,0.10627899,2.0501368
1421631495518.00,-7.87198,2.1002824,-0.18636246
1421631495527.00,-8.443043,4.182752,0.7165599
1421631495546.00,-6.84766,3.9990838,1.0003697
1421631495566.00,-3.5036142,1.4108162,1.2403207
1421631495586.00,8.553812,-9.341624,-15.54697
1421631495607.00,8.311017,-18.188377,-18.174456
1421631495627.00,4.79917,-6.8608327,-5.118157
1421631495646.00,-1.7042061,-1.6992663,11.230247
1421631495666.00,-11.925101,-15.786023,8.710686
1421631495686.00,-9.963431,-11.962823,10.927726
1421631495706.00,-9.433682,-4.0065684,6.7653313
1421631495726.00,-10.543026,-9.17517,9.873019
1421631495746.00,-8.379126,-18.078056,9.134604
1421631495766.00,-2.4240592,-19.376757,-7.0537815
1421631495834.00,3.5865417,-17.122293,-7.3438783
1421631495835.00,4.6277766,-18.746716,-0.79140425
1421631495836.00,4.722829,-18.913021,-2.4459138
1421631495846.00,4.7360015,-14.8516655,-9.224867
1421631495867.00,5.160968,-11.148367,-9.1621475
1421631495887.00,2.5511448,-9.327254,-6.5878005
1421631495907.00,0.7927515,-5.1943483,-7.0370164
1421631495927.00,2.9877868,-1.7477655,-5.4947734
1421631495946.00,3.855233,-0.34787658,-1.4672488
1421631495966.00,1.4361136,-0.6021977,0.626597
1421631495986.00,-0.82523394,-0.78152484,-0.3023712
1421631496006.00,-1.4163547,-4.08261,0.16914825
1421631496028.00,2.4554937,-14.575191,0.5321434
1421631496046.00,1.234932,-18.900297,-5.8713903
1421631496066.00,-6.2123814,-19.488573,-4.737199
1421631496086.00,-6.3743443,-19.568506,-1.3513898
1421631496109.00,-1.4629079,-19.579433,4.165987
1421631496194.00,-0.24429199,-17.56687,4.328399
1421631496195.00,2.3650818,-12.2786665,2.968477
1421631496197.00,0.68961596,-8.946445,3.9862106
1421631496198.00,-2.1427941,-4.5860133,4.072282
1421631496207.00,-5.0118775,0.5216652,2.339934
1421631496226.00,-7.1934414,3.2635136,-0.4511618
1421631496246.00,-7.734416,4.508624,0.061821442
1421631496266.00,-6.981931,3.346441,0.07589218
1421631496286.00,-3.077151,-0.24069947,-2.681374
1421631496306.00,6.2161236,-10.617421,-15.593373
1421631496326.00,5.531597,-18.301691,-14.679224
1421631496347.00,3.3611104,-5.6253023,-3.2621663
1421631496366.00,-0.48020142,3.9796243,11.3488
1421631496386.00,-6.839128,-8.880733,8.668922
1421631496407.00,-14.16205,-18.125658,10.444081
1421631496470.00,-6.986871,-10.379715,4.8370414
1421631496471.00,-7.731722,-7.912396,7.6007442
1421631496472.00,-7.080426,-14.2976675,9.311537
1421631496486.00,-4.1824527,-18.862425,2.9077034
1421631496506.00,2.4712112,-18.064135,-9.841285
1421631496527.00,4.367468,-19.278261,-7.3928266
1421631496546.00,4.3605824,-18.457666,-2.971321
1421631496566.00,3.671565,-12.285702,-6.6156425
1421631496586.00,2.3082001,-9.908944,-7.601642
1421631496607.00,1.8089882,-7.413933,-7.3389387
1421631496629.00,1.6564554,-4.731211,-7.3721695
1421631496647.00,4.061055,-2.0814216,-6.507268
1421631496668.00,3.1798375,-0.38709503,-0.5321434
1421631496686.00,0.12828323,-0.18636246,1.7134868
1421631496706.00,-0.88436097,-0.49741563,0.31734008
1421631496726.00,-0.7695497,-4.1194334,-1.2424164
1421631496747.00,3.0400283,-13.997841,0.7818242
1421631496819.00,3.436404,-18.82171,-3.33731
1421631496820.00,-5.7962465,-19.477797,-4.052822
1421631496821.00,-8.009694,-19.537073,-1.3117223
1421631496831.00,-2.967579,-17.868492,0.4646338
1421631496846.00,-0.005388794,-18.635498,3.441643
1421631496866.00,1.0385404,-14.7388,4.455335
1421631496886.00,1.2094848,-10.4252205,1.8961071
1421631496907.00,-1.6979191,-6.262078,1.986519
1421631496928.00,-4.0460863,-1.5380516,2.5538392
1421631496946.00,-6.6324077,1.9815793,0.54097503
1421631496966.00,-7.639214,3.4696348,-0.71191955
1421631496986.00,-7.3176827,3.0900242,-0.3225792
1421631497006.00,-4.1867933,-0.101638645,0.74260575
1421631497026.00,5.2159033,-6.0739193,-11.459869
1421631497046.00,7.7320213,-17.504599,-15.349081
1421631497066.00,4.6711864,-10.903326,-12.576397
1421631497135.00,-0.7430548,-1.8541942,9.24762
1421631497136.00,-7.10273,-13.0368395,6.443201
1421631497137.00,-10.581944,-16.127314,10.837314
1421631497146.00,-8.206684,-4.7081594,6.511609
1421631497166.00,-10.036928,-5.134323,8.159682
1421631497186.00,-8.585996,-15.304923,12.602143
1421631497206.00,-4.8210244,-18.99954,4.2537045
1421631497226.00,2.903063,-18.11967,-12.039614
1421631497246.00,5.696105,-17.678837,-2.8940818
1421631497266.00,4.773723,-18.988163,-1.7998571
1421631497286.00,3.9790256,-16.86977,-4.683311
1421631497306.00,3.615282,-12.871135,-10.263257
1421631497328.00,3.4855018,-10.753488,-7.5300913
1421631497355.00,1.3817766,-6.819818,-6.807394
1421631497366.00,1.1735595,-3.8799317,-7.7683954
1421631497386.00,4.1848474,-1.6456778,-4.418811
1421631497451.00,2.8120522,-0.72015244,0.1911525
1421631497452.00,1.0565029,-0.08786728,2.429448
1421631497453.00,-0.33096176,-1.035846,-0.9168434
1421631497466.00,0.001646576,-6.0213785,-1.8513501
1421631497486.00,4.2406816,-16.545544,1.5617024
1421631497506.00,0.17289047,-19.16824,-4.7740226
1421631497526.00,-7.2154455,-19.524948,-3.8061352
1421631497552.00,-7.225774,-19.28799,-1.6212785
1421631497568.00,-1.5326629,-19.136356,5.6971526
1421631497589.00,0.24698639,-18.284777,5.3359537
1421631497608.00,2.965184,-12.526701,1.9470012
1421631497647.00,1.0946736,-9.291478,1.9377205
1421631497648.00,-1.5715818,-4.855453,2.4547453
1421631497667.00,-4.4357257,-0.74410266,1.783092
1421631497686.00,-7.7567196,1.936523,-0.99992067
1421631497706.00,-8.870704,4.4954515,-1.1644286
1421631497726.00,-7.6914554,4.753814,0.91010743
1421631497794.00,-3.2552805,1.6810043,1.4443464
1421631497795.00,7.297475,-6.9989953,-11.687246
1421631497796.00,8.664133,-17.80233,-17.540674
1421631497806.00,5.2426977,-9.548943,-6.8576894
1421631497826.00,-2.0112176,-2.9524603,11.028915
1421631497847.00,-11.068433,-15.80159,8.143815
1421631497866.00,-10.742111,-11.0829525,9.586065
1421631497886.00,-10.277778,-3.8106258,7.2389464
1421631497906.00,-9.582623,-12.864548,11.707155
1421631497926.00,-6.7624874,-18.640587,11.43517
1421631497946.00,-0.55010605,-19.393072,-7.908953
1421631497974.00,5.0807347,-16.579971,-7.891739
1421631497987.00,4.559668,-18.202896,-1.7640816
1421631498006.00,4.412674,-17.928368,-3.7883222
1421631498026.00,3.2024405,-13.487253,-10.348281
1421631498046.00,3.0514045,-10.463092,-9.361084
1421631498069.00,2.458188,-8.287516,-6.4878087
1421631498154.00,1.40902,-4.6705875,-7.9823008
1421631498155.00,3.5863922,-2.0939956,-7.405101
1421631498156.00,3.3320708,0.10927276,0.21106109
1421631498157.00,0.5761519,0.8376581,1.0605446
1421631498166.00,-0.03861969,-0.6456075,0.48648834
1421631498186.00,0.11885285,-5.2907476,0.71341646
1421631498206.00,4.771328,-15.92703,1.117576
1421631498226.00,-2.170187,-19.084114,-6.5339127
1421631498247.00,-8.355774,-19.173328,-4.1522155
1421631498267.00,-7.6875634,-19.26479,-1.7705182
1421631498286.00,-1.8428178,-19.53812,2.6292825
1421631498306.00,-0.42541534,-19.065853,3.316653
1421631498326.00,3.740272,-14.7600565,4.352948
1421631498348.00,1.9459534,-9.547895,1.7646804
1421631498366.00,-1.2722044,-5.381609,3.0883777
1421631498386.00,-3.9332209,-0.42930725,3.1346314
1421631498408.00,-6.4988856,2.8499236,1.7092955
1421631498480.00,-7.5193133,5.760321,1.6916323
1421631498480.00,-6.913673,5.272935,1.4627582
1421631498482.00,-3.5170863,2.409689,-0.68302965
1421631498491.00,8.038284,-7.4717126,-14.044993
1421631498506.00,7.3378906,-17.933907,-17.372124
1421631498526.00,4.3878255,-10.193952,-8.5380945
1421631498549.00,-2.0902534,0.4314029,12.7184515
1421631498569.00,-9.061407,-13.221406,7.043902
1421631498586.00,-12.402309,-15.513888,12.346176
1421631498606.00,-10.644963,-4.7277684,7.720495
1421631498627.00,-9.643846,-9.723929,10.414293
1421631498646.00,-7.457193,-17.896484,12.858411
1421631498666.00,-2.036066,-19.352057,-0.29383895
1421631498688.00,6.010751,-18.503922,-12.683575
1421631498706.00,5.7136183,-19.212996,-3.4055681
1421631498772.00,5.1298323,-17.700392,-3.0957124
1421631498773.00,4.4406657,-12.602443,-8.390951
1421631498774.00,3.1437626,-10.731933,-8.772358
1421631498787.00,1.3813275,-8.166268,-6.2339363
1421631498806.00,-0.081580356,-4.190087,-7.013665
1421631498826.00,3.7058437,-1.4278808,-6.040539
1421631498846.00,4.057612,-0.052091673,-0.7677534
1421631498866.00,0.85681826,-0.122595064,0.15492782
1421631498886.00,-0.6366261,-1.1252102,-1.1026071
1421631498906.00,-0.50100815,-5.253625,-1.6127462
1421631498926.00,4.014053,-14.959292,1.4489868
1421631498946.00,2.2070105,-18.952538,-4.926106
1421631498968.00,-6.1354413,-19.49561,-4.2641826
1421631498986.00,-6.9148703,-19.554436,-1.3144166
1421631499006.00,-1.0377918,-19.342178,6.184988
1421631499027.00,-0.4656816,-17.56717,4.15012
1421631499046.00,2.1567152,-12.778776,3.6094441
1421631499123.00,1.7151333,-8.599767,2.8547137
1421631499124.00,-1.1779006,-4.0797663,3.08239
1421631499125.00,-5.199887,0.6807843,2.5752447
1421631499126.00,-7.9390407,2.9385393,1.1072475
1421631499147.00,-7.688312,4.684808,2.692451
1421631499167.00,-6.3424606,3.699407,1.6592995
1421631499186.00,-0.89932984,0.4272116,-4.6797185
1421631499207.00,9.039402,-13.478571,-17.392183
1421631499227.00,6.308481,-18.510357,-17.129478
1421631499247.00,-1.1050022,-1.0439291,11.605217
1421631499270.00,-4.8175817,-9.490115,9.897119
1421631499286.00,-14.186599,-18.193466,10.359208
1421631499306.00,-8.531209,-3.8010457,6.3728476
1421631499326.00,-9.699829,-3.9438486,10.456506
1421631499346.00,-7.875872,-16.76798,14.904506
1421631499366.00,-3.8604722,-19.198477,4.778513
1421631499441.00,3.7047958,-17.324972,-15.055841
1421631499442.00,4.8699727,-17.369879,-1.5028747
1421631499443.00,4.469855,-18.572329,-1.8606308
1421631499451.00,4.301455,-16.19108,-6.113587
1421631499466.00,3.7130287,-11.537108,-9.80012
1421631499486.00,3.6194732,-9.654473,-6.7611403
1421631499507.00,1.8321899,-6.0281143,-6.2655206
1421631499526.00,3.2043865,-2.700235,-6.9989953
1421631499546.00,5.548811,-1.3780344,-3.3070729
1421631499566.00,2.5884173,-1.0288106,1.3620176
1421631499587.00,0.22917344,-0.68018556,0.7685019
1421631499606.00,-0.56567365,-2.565964,-0.46912444
1421631499627.00,1.8636246,-11.381133,-0.31135255
1421631499646.00,3.4923875,-18.297201,-2.6041346
1421631499666.00,-6.0926304,-19.406544,-5.9824595
1421631499687.00,-8.214318,-19.55743,-3.3441956
1421631499707.00,-1.2364289,-19.577938,5.360353
1421631499777.00,1.3623171,-18.818117,4.224964
1421631499778.00,2.4243586,-14.551839,2.8883936
1421631499779.00,1.6232245,-10.582693,3.0813422
1421631499795.00,-0.52795213,-6.6225286,3.8748422
1421631499807.00,-3.336412,-1.2611275,3.5765126
1421631499826.00,-6.6000752,1.5929874,1.1811937
1421631499846.00,-7.830067,4.0972795,0.13352233
1421631499873.00,-7.6496925,5.363347,1.6001724
1421631499889.00,-5.520819,3.7071908,0.085023195
1421631499911.00,3.7669168,-2.9539573,-10.699151
1421631499926.00,8.889265,-17.053139,-18.346449
1421631499947.00,4.4671607,-10.718611,-3.0897248
1421631499966.00,-1.7958156,5.028044,14.141093
1421631499987.00,-6.443351,-7.207362,11.996054
1421631500007.00,-14.773378,-17.897982,7.29987
1421631500026.00,-5.2024317,-10.277628,-3.4837055
1421631500080.00,-4.855902,-6.8533483,6.908434
1421631500081.00,-3.3976345,-16.141085,15.0012045
1421631500090.00,-1.7377363,-19.113153,8.54977
1421631500106.00,2.8488758,-18.584454,-9.184002
1421631500126.00,5.175188,-18.34585,-7.470964
1421631500146.00,3.3220417,-18.25454,-3.2316298
1421631500167.00,2.0411553,-15.325581,-6.079757
1421631500188.00,0.4219725,-11.22411,-10.212513
1421631500206.00,0.77987826,-7.949968,-8.506211
1421631500226.00,1.3650115,-5.1509385,-7.469018
1421631500247.00,3.165617,-3.6068995,-9.803114
1421631500266.00,4.439019,-0.94812834,-0.4098477
1421631500286.00,2.4849825,0.19070344,2.6753864
1421631500306.00,1.7118402,-0.48094985,-0.005688171
1421631500326.00,0.27258316,-2.5753944,-1.9493963
1421631500348.00,1.4242882,-10.240206,-0.09939331
1421631500369.00,5.778284,-18.14871,0.79933774
1421631500440.00,-3.0735586,-19.386335,-5.4045115
1421631500441.00,-7.744146,-19.554586,-4.0520735
1421631500442.00,-4.1897874,-19.577488,0.5480104
1421631500455.00,0.53364027,-19.580631,3.1374755
1421631500466.00,0.61117905,-16.254848,4.412674
1421631500487.00,2.8623476,-11.376792,3.5591488
1421631500506.00,0.34458342,-7.707622,3.750002
1421631500526.00,-2.6009912,-2.7303224,4.117787
1421631500546.00,-6.408174,1.9604732,2.4292982
1421631500566.00,-8.215816,4.9135323,0.38395157
1421631500586.00,-8.103549,5.945486,1.9549347
1421631500607.00,-6.0640397,3.4902918,0.16181351
1421631500627.00,1.121917,-1.2657678,-8.148156
1421631500647.00,7.405999,-15.123052,-17.962646
1421631500666.00,4.6369076,-16.356787,-13.206437
1421631500720.00,-0.56118304,2.651586,12.083622
1421631500721.00,-3.9779778,-6.3987436,10.1706
1421631500732.00,-13.888569,-17.56223,8.379874
1421631500746.00,-6.0382934,-9.067694,1.511407
1421631500767.00,-7.2504725,-4.548741,6.486611
1421631500786.00,-6.518195,-14.212046,12.907808
1421631500807.00,-4.434079,-18.847456,10.814411
1421631500826.00,1.6516653,-19.481388,-8.483309
1421631500846.00,7.0956945,-18.058447,-7.8145
1421631500867.00,5.715714,-18.982027,-2.4661217
1421631500887.00,4.128565,-16.818874,-6.01599
1421631500906.00,2.210154,-11.969559,-10.023157
1421631500926.00,1.9579284,-9.430539,-8.834928
1421631500947.00,1.5274237,-6.792575,-6.6166906
1421631500969.00,0.87942123,-3.2340248,-6.455925
1421631500989.00,4.2123904,-0.37646714,-2.6595194
1421631501008.00,4.690945,0.30147308,-1.9185604
1421631501106.00,1.0603949,-0.6783893,-2.4336393
1421631501108.00,-1.004561,-2.2980213,0.5387297
1421631501109.00,0.76820254,-8.407267,1.7597406
1421631501110.00,5.0490007,-17.213903,0.14265335
1421631501111.00,-0.6954538,-19.2591,-7.0063305
1421631501133.00,-5.6784415,-19.537373,-4.3393264
1421631501146.00,-3.7952077,-19.575243,-1.2457095
1421631501167.00,0.26899064,-19.550245,2.8605514
1421631501188.00,1.7616866,-16.651373,5.136419
1421631501206.00,5.1114206,-11.417657,2.138453
1421631501226.00,0.66955763,-7.433841,2.0242405
1421631501246.00,-2.954556,-2.8072622,3.186873
1421631501267.00,-6.632258,1.736988,2.698289
1421631501286.00,-8.604258,3.987857,0.57944506
1421631501311.00,-8.364606,5.563481,2.5273445
1421631501327.00,-6.9539394,4.6466374,2.443369
1421631501389.00,-0.9463321,0.36658767,-6.158194
1421631501390.00,5.3784657,-15.673307,-17.723293
1421631501391.00,6.0447297,-16.6623,-13.454172
1421631501407.00,2.7640023,-6.49679,13.858182
1421631501427.00,-6.7502127,-17.31599,8.543783
1421631501447.00,-9.623937,-8.180638,12.956457
1421631501466.00,-11.691737,1.2380754,11.343711
1421631501489.00,-12.892989,-7.412735,11.069331
1421631501512.00,-8.572523,-17.814754,12.432397
1421631501526.00,-2.0207977,-19.34083,-3.267106
1421631501546.00,4.996011,-16.463814,-13.445789
1421631501566.00,6.142327,-18.848654,-3.0051508
1421631501587.00,5.5610857,-18.73983,-5.0912127
1421631501606.00,3.8040395,-13.514796,-10.2878065
1421631501627.00,4.603078,-10.540331,-7.80956
1421631501646.00,3.5203793,-8.649613,-7.065757
1421631501669.00,1.1533515,-3.8902602,-8.725056
1421631501730.00,1.9621197,-1.6979191,-5.7805295
1421631501732.00,2.7590625,1.2434642,1.0925779
1421631501733.00,1.781146,0.719404,1.0455757
1421631501747.00,1.4825171,-0.65369064,-1.4847624
1421631501766.00,0.9119037,-4.966672,-1.1579919
1421631501786.00,4.423751,-15.000755,1.2663666
1421631501806.00,2.4161255,-18.958076,-4.205804
1421631501826.00,-6.16972,-19.496357,-4.8614407
1421631501847.00,-7.320078,-19.569555,-3.2807276
1421631501867.00,-0.76820254,-19.579584,8.220006
1421631501887.00,0.9279204,-18.55766,4.707261
1421631501906.00,4.7599516,-13.947546,2.4912694
1421631501927.00,3.0955627,-9.308244,3.0776
1421631501946.00,0.16555573,-5.5115385,4.402944
1421631501972.00,-3.864813,-0.78496766,4.6822634
1421631502030.00,-7.3024144,2.689158,1.2027489
1421631502031.00,-9.383537,5.0960026,-0.32332763
1421631502032.00,-9.568253,5.0802855,0.08876541
1421631502046.00,-5.2168016,2.1179457,-1.1521541
1421631502067.00,3.8583765,-5.527256,-10.789264
1421631502086.00,4.927902,-16.070131,-18.006805
1421631502106.00,3.6119888,-11.015293,-6.5916924
1421631502127.00,0.6803352,-2.5101302,13.1543455
1421631502146.00,-6.17451,-16.764389,6.0200315
1421631502166.00,-6.157595,-14.787748,7.1844597
1421631502187.00,-7.3566017,-1.1404784,6.9528913
1421631502206.00,-11.394455,-3.1509476,11.147618
1421631502227.00,-7.644902,-16.937578,15.363602
1421631502246.00,-3.8444555,-19.221529,8.310718
1421631502267.00,5.0296907,-18.863623,-14.567706
1421631502286.00,6.998397,-18.44225,-3.423381
1421631502352.00,5.7573276,-19.411184,-3.9005888
1421631502352.00,4.357738,-16.151264,-7.715555
1421631502353.00,3.1287937,-10.287956,-10.818153
1421631502366.00,3.2533348,-9.370963,-6.840475
1421631502387.00,0.8650511,-4.7138476,-8.250243
1421631502407.00,1.9468515,-2.1859045,-8.175399
1421631502427.00,3.041974,0.56028485,0.88181627
1421631502449.00,1.5242802,0.24504043,1.0364447
1421631502468.00,1.4259348,-0.71311706,-0.952619
1421631502488.00,0.8158035,-3.4569113,-2.5346792
1421631502518.00,2.5896149,-10.872491,-0.48633865
1421631502530.00,6.6888404,-18.046022,0.40894958
1421631502546.00,-0.92567503,-19.372416,-4.1050634
1421631502567.00,-6.0944266,-19.55279,-3.1328351
1421631502587.00,-3.6167789,-19.57734,-3.4858012
1421631502610.00,0.4593947,-19.565514,4.2926235
1421631502626.00,1.7772542,-15.790962,5.210365
1421631502646.00,3.977379,-11.067086,1.9489472
1421631502707.00,0.19863693,-7.8149486,2.012565
1421631502708.00,-2.7310708,-2.6957443,3.3388069
1421631502709.00,-6.793473,1.5925384,2.165846
1421631502729.00,-9.01665,4.0035744,1.6979191
1421631502746.00,-8.856033,4.201762,1.5009288
1421631502767.00,-6.3747935,2.783761,0.27617568
1421631502787.00,1.1053015,-2.017355,-7.52096
1421631502806.00,7.806117,-16.185392,-17.366587
1421631502827.00,2.844834,-13.016632,-10.899136
1421631502846.00,1.2645704,-0.4963678,5.3332596
1421631502878.00,-0.8427475,-1.6072078,12.314741
1421631502889.00,-10.543625,-15.590979,8.579409
1421631502906.00,-7.6704993,-15.517033,6.068381
1421631502927.00,-6.266868,-5.868247,3.4795144
1421631502946.00,-7.3904314,-6.536308,7.4862323
1421631503023.00,-4.728667,-15.758031,11.707305
1421631503026.00,-1.9146684,-19.061062,6.428083
1421631503027.00,4.732858,-18.08614,-8.799602
1421631503028.00,7.1819153,-17.856817,-4.1209307
1421631503047.00,5.912854,-19.313139,-3.231929
1421631503067.00,4.827162,-17.035624,-6.364764
1421631503086.00,3.8910086,-11.612851,-10.789114
1421631503106.00,3.8947508,-9.7377,-7.5080867
1421631503126.00,1.4690452,-5.4033136,-7.520661
1421631503151.00,1.6618441,-3.1031969,-9.821077
1421631503167.00,2.7839108,-0.49951127,-1.8721569
1421631503187.00,2.1080663,0.91863966,2.834805
1421631503207.00,2.1420455,0.3662883,1.4691948
1421631503226.00,1.6705261,-2.5249493,-1.4940431
1421631503246.00,2.3334975,-8.181237,-0.76760375
1421631503267.00,6.701115,-17.153728,2.8437862
1421631503286.00,0.6090834,-19.251017,-3.179089
1421631503346.00,-5.565277,-19.536175,-2.9448261
1421631503348.00,-7.285051,-19.575094,-4.277355
1421631503349.00,-2.6455984,-19.580332,-3.257077
1421631503367.00,-0.30686188,-19.581081,3.6724632
1421631503386.00,3.0719118,-16.774267,3.807183
1421631503407.00,3.2433054,-11.168724,1.8971548
1421631503426.00,0.061671752,-6.52553,3.7256026
1421631503447.00,-2.9014165,-2.241888,3.5161881
1421631503466.00,-6.1541524,1.4768289,0.41388932
1421631503491.00,-7.9457765,4.522246,-1.4004877
1421631503507.00,-8.282127,5.8368125,1.386866
1421631503527.00,-6.0122476,3.7303927,2.0534298
1421631503547.00,1.5925384,-1.0603949,-4.4869194
1421631503566.00,7.303612,-14.685362,-14.528638
1421631503593.00,4.269272,-16.631914,-15.578704
1421631503686.00,1.3850697,-1.3919554,6.9253488
1421631503687.00,-1.782643,-4.1546106,10.748998
1421631503688.00,-12.786111,-16.820671,8.096214
1421631503689.00,-6.1022105,-12.201278,3.7877233
1421631503690.00,-6.72267,-2.9770093,4.7695317
1421631503711.00,-7.1715865,-6.9403176,10.067315
1421631503727.00,-4.594396,-16.844921,13.64712
1421631503746.00,-1.95718,-19.208954,5.190756
1421631503767.00,5.0798364,-17.318087,-11.755804
1421631503787.00,6.645281,-18.472187,-4.0481815
1421631503806.00,5.3283195,-18.385817,-2.989134
1421631503828.00,4.7403426,-15.846048,-6.145171
1421631503846.00,4.3402243,-11.172915,-10.212363
1421631503867.00,4.4423122,-8.95902,-6.898105
1421631503886.00,2.6466463,-5.3923864,-6.230194
1421631503906.00,2.289938,-2.6417065,-7.8788657
1421631503930.00,4.29906,-0.5854326,-2.113455
1421631504009.00,3.0912218,0.4896318,1.9368224
1421631504010.00,1.9058368,0.08202942,1.2792398
1421631504011.00,1.2443624,-2.2662873,-1.2111315
1421631504012.00,3.1461575,-9.928853,-0.34338593
1421631504030.00,7.072792,-18.006805,2.2118006
1421631504047.00,-0.36179763,-19.367025,-3.6314483
1421631504069.00,-4.9235616,-19.552042,-2.8888426
1421631504089.00,-5.655988,-19.56207,-4.0857534
1421631504107.00,-1.6485219,-19.497555,0.61087966
1421631504127.00,0.94528425,-19.569704,4.2676253
1421631504148.00,3.1343322,-16.251106,2.7827134
1421631504166.00,2.2939796,-11.810889,1.1337423
1421631504186.00,-0.4245172,-8.883726,3.1404693
1421631504207.00,-2.210603,-4.0776706,2.4041505
1421631504226.00,-5.2230887,0.3649411,0.45759842
1421631504246.00,-8.546477,3.2184572,-1.4688954
1421631504270.00,-9.048983,3.662883,-0.8919951
1421631504330.00,-7.5525446,3.60181,1.4676979
1421631504331.00,-2.5327332,-1.0050101,1.3316308
1421631504332.00,5.7586746,-7.336843,-5.91959
1421631504347.00,10.415491,-17.511185,-15.896493
1421631504367.00,4.628375,-9.82901,-11.827654
1421631504387.00,1.6554075,-0.9648935,0.508792
1421631504407.00,-3.700904,-2.5099804,8.745114
1421631504427.00,-12.446767,-16.692837,7.8929367
1421631504446.00,-4.291725,-14.077326,3.088228
1421631504467.00,-5.6853275,-4.0733294,3.223846
1421631504487.00,-7.9332027,-4.481231,5.2808685
1421631504507.00,-5.983507,-10.360854,10.476713
1421631504528.00,-3.6796482,-18.037043,14.024785
1421631504548.00,2.072141,-19.371067,2.1285737
1421631504568.00,8.04996,-16.467855,-8.896001
1421631504587.00,8.328082,-17.655186,-1.9314336
1421631504657.00,6.0896363,-19.009869,-2.9916787
1421631504658.00,4.406387,-15.570321,-9.718989
1421631504659.00,4.1017704,-11.739488,-10.991942
1421631504676.00,2.9786558,-8.457562,-7.828121
1421631504688.00,1.7688717,-4.731062,-9.4494
1421631504708.00,1.9359242,-2.3269112,-2.958448
1421631504727.00,2.2357507,0.36928207,1.8428178
1421631504748.00,2.7488837,1.0416838,-0.7393126
1421631504767.00,3.489244,-1.088237,-2.174079
1421631504788.00,2.4816892,-3.7585342,-0.8393047
1421631504806.00,2.3770568,-8.439001,1.7995578
1421631504826.00,5.8824673,-16.607365,4.3911185
1421631504846.00,0.09265732,-19.176622,-2.967579
1421631504867.00,-5.0796866,-19.526146,-3.7007542
1421631504887.00,-5.8945923,-18.956131,-3.4045203
1421631504954.00,-4.9090414,-19.256855,-2.9042606
1421631504955.00,-3.0322444,-19.537073,3.7468584
1421631504956.00,-0.20222946,-18.055304,2.4899223
1421631504966.00,2.870431,-11.981684,0.85921323
1421631504987.00,1.2142749,-9.119636,0.57794815
1421631505007.00,0.31030473,-6.0706263,2.6042843
1421631505026.00,-2.364034,-1.9360739,1.8407222
1421631505048.00,-4.1468267,1.617686,-0.5968089
1421631505067.00,-5.267696,3.6332445,-1.8073416
1421631505088.00,-5.540728,4.498296,-1.6283139
1421631505110.00,-4.289929,3.4992733,-0.0875679
1421631505131.00,-1.3633648,-2.663112,-2.331851
1421631505146.00,3.4367034,-11.375444,-8.945996
1421631505167.00,4.8479686,-17.197588,-15.9524765
1421631505186.00,2.879113,-7.4006104,-7.758067
1421631505207.00,-1.8402731,3.1674132,14.58043
1421631505227.00,-4.0797663,-5.4167857,9.822574
1421631505284.00,-15.29684,-17.654438,3.7573366
1421631505285.00,-2.6890082,-8.520581,5.955066
1421631505297.00,-3.7006044,-6.35249,7.181616
1421631505306.00,-3.432063,-14.569353,12.84464
1421631505327.00,0.13202545,-17.751286,13.170362
1421631505346.00,4.0149508,-19.332298,-1.5410454
1421631505367.00,6.7922754,-16.674126,-9.380992
1421631505387.00,5.5191727,-17.096996,-4.700226
1421631505407.00,3.7199144,-17.39817,-4.112398
1421631505426.00,1.4494358,-14.507082,-8.977731
1421631505447.00,0.87747526,-9.285641,-10.092463
1421631505467.00,1.6943266,-6.0050626,-5.2202444
1421631505487.00,1.7976118,-2.7235863,-6.230344
1421631505506.00,4.351002,-1.2440629,-5.1524353
1421631505527.00,3.6812947,-0.43334883,0.744402
1421631505547.00,1.4991325,-1.1100916,1.366658
1421631505627.00,0.5357359,-1.9670595,-0.6066884
1421631505628.00,-0.6990463,-5.6021004,-0.8931926
1421631505629.00,1.5352075,-15.322437,0.47765672
1421631505630.00,0.27782226,-19.001936,-5.2868557
1421631505648.00,-6.6228275,-19.44217,-5.769303
1421631505666.00,-4.884792,-19.538868,-3.5058596
1421631505686.00,1.695075,-19.575394,4.9301476
1421631505707.00,1.3181589,-18.977835,3.1835797
1421631505727.00,3.0124855,-14.245726,2.7360106
1421631505748.00,1.6613951,-8.686437,2.6427543
1421631505766.00,-0.5141808,-4.376,2.5030947
1421631505787.00,-4.1546106,-0.001796265,1.5910414
1421631505806.00,-7.7404037,2.3896308,-0.045056306
1421631505826.00,-8.121811,4.1387434,0.6372249
1421631505847.00,-6.8142796,4.6485834,3.9640567
1421631505868.00,-2.861749,1.1073972,3.080145
1421631505886.00,7.3480697,-9.474547,-11.7632885
1421631505907.00,9.679471,-16.867075,-18.485659
1421631505969.00,-1.9679576,-0.8045769,11.120375
1421631505970.00,-6.2237577,-2.4691155,12.96918
1421631505971.00,-12.802427,-15.625407,11.207045
1421631505987.00,-9.715097,-12.10383,5.9839563
1421631506007.00,-7.5785904,-14.031521,8.739127
1421631506027.00,-4.06824,-18.809435,12.545113
1421631506046.00,1.2790902,-19.476149,0.8879535
1421631506070.00,8.716973,-18.123413,-13.760585
1421631506092.00,7.9635897,-18.639389,-4.423601
1421631506106.00,5.282515,-17.93151,-3.8582268
1421631506127.00,2.080823,-13.005405,-8.797206
1421631506146.00,1.8024019,-10.719509,-10.246043
1421631506167.00,2.1513262,-7.731722,-6.7234187
1421631506187.00,1.411864,-4.099076,-6.646778
1421631506207.00,3.8264928,-2.2680836,-8.716973
1421631506228.00,6.0673327,-0.18082398,0.025896149
1421631506307.00,3.8184097,-0.49442184,3.6329453
1421631506308.00,1.7431252,-0.89244413,0.89783293
1421631506309.00,-0.1128653,-5.8674984,-0.554447
1421631506310.00,2.7402017,-16.4701,0.18830842
1421631506326.00,-1.9974463,-19.157911,-3.8637652
1421631506347.00,-7.6020913,-19.5236,-3.1067894
1421631506367.00,-6.4330225,-19.573298,-2.48618
1421631506387.00,0.009729767,-19.580032,3.048411
1421631506407.00,1.0443782,-18.930683,2.3864872
1421631506427.00,4.1568556,-13.378729,3.8537362
1421631506448.00,1.6341518,-9.308693,3.61633
1421631506467.00,-1.4385086,-4.981641,3.8649628
1421631506487.00,-4.6590614,-0.31105316,3.7112324
1421631506507.00,-7.400311,2.8029213,1.640738
1421631506526.00,-8.394693,5.9031243,0.23740631
1421631506546.00,-7.4197707,6.7316513,0.64830184
1421631506570.00,-4.062552,3.9630089,2.1228855
1421631506640.00,6.460565,-3.9835162,-8.6611395
1421631506641.00,10.842853,-17.03278,-17.922081
1421631506641.00,3.7769458,-12.718751,-10.275981
1421631506651.00,1.3498929,-3.1552885,-0.93510544
1421631506667.00,-2.3381379,3.3900003,12.73357
1421631506686.00,-7.7881546,-4.7794113,8.812325
1421631506707.00,-13.259577,-17.230669,3.3084202
1421631506727.00,-4.532275,-12.604689,-2.4038513
1421631506746.00,-6.354436,-7.138805,5.4712725
1421631506767.00,-5.2009344,-9.689651,9.9451685
1421631506787.00,-3.5569034,-16.08031,14.365327
1421631506809.00,-0.91070616,-19.104921,6.158344
1421631506826.00,5.689219,-17.493372,-8.716824
1421631506847.00,6.958879,-18.382973,-1.248853
1421631506866.00,5.610782,-19.312689,-2.973267
1421631506932.00,5.4220247,-17.510885,-4.5767326
1421631506933.00,4.600533,-12.123289,-12.814552
1421631506934.00,4.066294,-10.236314,-11.064691
1421631506946.00,2.2391937,-6.172115,-6.125412
1421631506966.00,1.8055453,-3.6670742,-4.2435255
1421631506986.00,3.216062,-0.95905566,-0.13322297
1421631507007.00,4.3617797,-0.26584718,2.090403
1421631507026.00,3.785478,-0.45310774,1.3310322
1421631507047.00,2.088906,-2.0775297,-2.8812084
1421631507066.00,0.7887099,-4.932543,-1.853296
1421631507102.00,2.2635927,-11.699222,0.45205992
1421631507107.00,7.0648584,-18.47533,5.045857
1421631507126.00,-0.54082537,-19.430794,-2.3821464
1421631507147.00,-1.3172607,-19.560722,-1.8519489
1421631507167.00,-3.4738262,-19.578386,-4.0320153
1421631507186.00,-2.588118,-19.580782,0.67868865
1421631507243.00,1.2003539,-19.581081,9.076226
1421631507244.00,4.4530897,-16.72023,0.16795075
1421631507252.00,3.494633,-12.102483,-0.31928605
1421631507267.00,0.23456222,-8.68,3.1229558
1421631507287.00,-0.74380326,-3.8983433,1.8510507
1421631507307.00,-4.7586045,0.90022796,-0.14400055
1421631507326.00,-8.870554,4.2299037,-0.64635587
1421631507346.00,-9.652079,5.76107,1.5266752
1421631507366.00,-6.1204724,5.7002964,4.0429425
1421631507387.00,-1.4444962,1.7612375,1.1154803
1421631507409.00,2.6695487,-5.85732,-5.7823257
1421631507427.00,5.880222,-12.002192,-14.985936
1421631507449.00,4.6407995,-10.316996,-11.970307
1421631507468.00,0.75203615,-1.5820601,6.1328964
1421631507488.00,-3.1879206,-3.3269815,10.206526
1421631507509.00,-10.292297,-16.270266,3.819607
1421631507591.00,-5.047803,-14.676829,-0.13037887
1421631507592.00,-4.377946,-5.9177938,3.3673975
1421631507593.00,-6.2161236,-6.524632,6.127208
1421631507594.00,-4.4725494,-15.066619,12.817396
1421631507606.00,-2.3176305,-18.950144,9.119486
1421631507627.00,3.7943096,-19.284697,-4.0311174
1421631507652.00,8.538693,-16.60033,-3.5202296
1421631507666.00,8.609945,-18.305883,-0.21375549
1421631507687.00,5.7236476,-19.104172,-3.3530273
1421631507707.00,3.547024,-16.764389,-6.1481647
1421631507726.00,1.7071998,-12.354858,-14.000087
1421631507747.00,2.0712428,-9.572444,-11.107801
1421631507767.00,1.0060579,-4.7268705,-5.9049206
1421631507787.00,2.395319,-3.0204191,-5.537435
1421631507809.00,4.368067,-0.42272094,1.0502161
1421631507826.00,5.1689014,0.6171666,1.6257691
1421631507898.00,3.1025982,-0.7801776,0.1607657
1421631507899.00,1.1852353,-3.2578254,-0.9156459
1421631507899.00,2.4460633,-10.645412,-0.282762
1421631507912.00,4.3280997,-17.700243,0.84768724
1421631507927.00,-1.4985337,-19.310293,-3.30857
1421631507947.00,-4.003874,-19.544258,-3.2380664
1421631507967.00,-5.377268,-19.576141,-5.900729
1421631507987.00,-0.40520737,-19.580482,3.4423914
1421631508007.00,2.9244685,-19.581081,5.8336687
1421631508030.00,5.460046,-15.16182,1.1514057
1421631508050.00,2.9961693,-11.556269,1.1593392
1421631508070.00,0.5947133,-9.3289,4.8364425
1421631508087.00,-1.2760963,-3.3645535,3.19795
1421631508109.00,-4.865183,0.86475176,0.5008585
1421631508126.00,-8.145162,3.7657192,-2.0676503
1421631508147.00,-9.1307125,5.875432,-0.68273026
1421631508221.00,-7.1206923,6.286028,3.2886612
1421631508222.00,-2.105821,1.4191988,2.8894415
1421631508224.00,3.9356158,-4.713548,-3.9736369
1421631508237.00,8.201295,-15.664326,-13.792019
1421631508247.00,4.9048505,-13.738581,-14.817238
1421631508274.00,1.5603552,-4.2748103,-0.05388794
1421631508286.00,-4.613406,-8.916957,9.493258
1421631508307.00,-10.275981,-18.049616,9.265732
1421631508329.00,-7.1052747,-8.366102,5.930218
1421631508352.00,-8.407566,-4.6119094,5.533094
1421631508367.00,-6.954388,-11.693383,9.759555
1421631508387.00,-1.8467097,-18.322048,14.42625
1421631508408.00,1.786984,-19.409838,6.5675926
1421631508426.00,6.773115,-17.415384,-10.149644
1421631508449.00,8.609796,-17.203125,-2.9195287
1421631508466.00,6.5949855,-18.788778,-3.031945
1421631508488.00,4.248615,-17.237104,-5.288353
1421631508595.00,2.6497898,-12.039314,-10.873837
1421631508596.00,1.8247055,-9.878258,-10.984907
1421631508597.00,0.6236032,-5.4679794,-5.2206936
1421631508598.00,1.6045134,-3.1340327,-3.453169
1421631508599.00,3.7458105,-1.5856526,-1.7220191
1421631508612.00,5.267696,-0.25417146,-0.19714004
1421631508627.00,4.7394443,-0.73407346,-0.04790039
1421631508647.00,1.1307486,-2.0948937,-1.2657678
1421631508668.00,-0.57390654,-5.966293,-0.5177733
1421631508687.00,2.3710694,-14.461128,0.63632673
1421631508707.00,1.6804056,-18.88473,-2.6503885
1421631508726.00,-3.1903157,-19.486477,-4.365971
1421631508746.00,-4.4617715,-19.568207,-4.437073
1421631508766.00,1.3696518,-19.579433,4.5508366
1421631508786.00,3.0011091,-19.58093,4.1757164
1421631508807.00,4.4530897,-16.029566,3.0611343
1421631508905.00,3.6395316,-12.030782,1.6227754
1421631508907.00,1.0487192,-8.8895645,3.029999
1421631508908.00,-0.7084767,-4.22691,3.3905993
1421631508909.00,-4.903204,-0.17154327,1.5783179
1421631508910.00,-8.133187,2.6815238,-1.9832258
1421631509038.00,-9.943522,5.305268,-1.4606625
1421631509041.00,-9.191936,5.623057,2.0386107
1421631509043.00,-3.3456926,1.3108242,1.9016455
1421631509044.00,4.9217653,-5.3962784,-6.131699
1421631509046.00,8.572972,-16.15351,-16.3258
1421631509047.00,5.4660335,-13.470039,-15.583644
1421631509048.00,-0.43035507,-3.7256026,10.714569
1421631509066.00,-5.449418,-14.985786,8.355474
1421631509099.00,-7.941286,-16.214882,8.591534
1421631509107.00,-7.558083,-6.387068,6.064489
1421631509129.00,-10.914553,-4.000431,5.0287924
1421631509147.00,-7.7520795,-13.925841,10.04561
1421631509240.00,-2.8656409,-18.81183,12.827425
1421631509241.00,5.1687517,-19.476448,-5.7574773
1421631509241.00,11.689192,-17.564325,-10.734926
1421631509242.00,10.746003,-16.277302,-3.121908
1421631509254.00,4.897665,-14.764996,-7.901319
1421631509267.00,0.7964937,-11.588302,-8.860075
1421631509286.00,0.3198848,-7.6957965,-6.7907786
1421631509308.00,-0.51268387,-2.9370425,-5.968239
1421631509328.00,-0.9340576,0.7345226,-2.2435346
1421631509348.00,-0.5266049,1.3307327,-0.12064911
1421631509379.00,1.2783417,1.0340496,-2.1215382
1421631509387.00,2.333198,-1.2969031,-3.4010775
1421631509407.00,3.765869,-7.2875953,-2.4071443
1421631509426.00,6.0673327,-17.558636,-1.6664845
1421631509447.00,-0.3266208,-19.306103,-6.3929057
1421631509466.00,-4.4668612,-19.176472,-4.75127
1421631509487.00,-3.8440063,-19.526146,3.5419345
1421631509593.00,-1.2629237,-16.608263,3.8431082
1421631509594.00,4.6407995,-12.542418,-1.2995975
1421631509595.00,3.8761895,-9.680968,0.48828462
1421631509596.00,-2.0606148,-4.445156,3.667224
1421631509597.00,-4.903204,-1.4660513,4.2926235
1421631509608.00,-6.57373,1.6182847,2.6301806
1421631509626.00,-7.97317,4.8168335,0.44682083
1421631509649.00,-7.135661,5.6693106,-0.8288264
1421631509667.00,-3.299888,3.6501594,-2.3393354
1421631509687.00,2.7524762,-4.706513,-10.4743185
1421631509706.00,9.042846,-16.842825,-18.30693
1421631509727.00,3.2476466,-18.699715,-0.6408174
1421631509747.00,-0.63587767,-18.603464,16.8304
1421631509768.00,-5.4678297,-11.498638,12.481645
1421631509787.00,-10.300081,-2.0778291,9.241034
1421631509807.00,-11.809841,-4.6216393,6.6647406
1421631509872.00,-11.272908,-13.505964,7.202722
1421631509873.00,-7.911498,-18.754799,9.096883
1421631509874.00,1.2841796,-19.333345,2.4411237
1421631509886.00,7.658524,-13.783338,-4.4376717
1421631509907.00,9.78575,-15.139069,-1.1244617
1421631509927.00,7.5312886,-15.732285,-3.1784904
1421631509947.00,7.615713,-14.340179,-8.771609
1421631509967.00,7.474706,-10.807675,-5.5015097
1421631509991.00,3.7751496,-7.806716,-7.230564
1421631510015.00,2.819387,-4.918921,-9.941726
1421631510031.00,3.600463,-2.9142897,-6.979536
1421631510049.00,2.8104057,-1.9270926,-0.5071454
1421631510066.00,-0.0411644,-1.0452763,0.14115646
1421631510087.00,-0.7731422,-1.520987,-3.1424153
1421631510107.00,-1.9342777,-4.522096,-4.13081
1421631510126.00,-0.599653,-13.432318,0.030536499
1421631510194.00,1.1885284,-18.74477,-5.84265
1421631510195.00,-1.4757811,-19.43723,-4.321214
1421631510196.00,0.12723541,-19.56162,6.8555937
1421631510207.00,2.663561,-17.208963,-0.30207184
1421631510227.00,4.3457627,-15.06617,0.122595064
1421631510247.00,1.2281959,-10.370734,3.8468504
1421631510267.00,-2.3447242,-4.9740067,3.8809795
1421631510289.00,-3.940855,-0.24519013,2.6454487
1421631510307.00,-7.5404196,4.354894,-0.2562671
1421631510327.00,-8.427625,6.051915,-2.2532644
1421631510346.00,-5.0208592,4.7172904,-1.9007474
1421631510367.00,-1.995201,1.2135265,-0.46074188
1421631510389.00,2.472708,-3.9438486,-4.934339
1421631510408.00,7.629335,-10.188413,-15.458803
1421631510429.00,0.945434,-6.2089386,-4.915478
1421631510499.00,-6.585256,-10.203382,11.925401
1421631510500.00,-8.85768,-18.241516,8.525222
1421631510501.00,-4.485722,-13.107193,0.6905141
1421631510515.00,-4.093837,-6.379883,4.334536
1421631510526.00,-3.9149587,-10.13692,8.679252
1421631510546.00,-0.02454895,-17.719402,12.108021
1421631510567.00,5.683082,-19.327957,-0.08008347
1421631510587.00,9.050778,-17.050592,-1.6030165
1421631510607.00,9.77138,-16.644487,3.0466146
1421631510627.00,7.8953314,-18.604063,-0.91609496
1421631510647.00,7.6351724,-19.051632,-3.5717225
1421631510667.00,6.0228753,-15.369888,-11.178454
1421631510687.00,3.4245787,-13.129498,-14.757661
1421631510707.00,0.53843033,-9.979597,-8.534203
1421631510727.00,2.0501368,-5.2653008,-9.969119
1421631510747.00,4.40953,-2.0381615,-4.017945
1421631510766.00,6.382727,0.26734406,2.4565415
1421631510824.00,2.9103978,-1.0585986,-1.0716215
1421631510826.00,0.53049684,-2.6436524,-1.848955
1421631510827.00,0.22378464,-8.066127,-2.7782226
1421631510846.00,2.5512946,-16.901503,-2.9151878
1421631510866.00,-2.2158422,-19.216589,-7.1022806
1421631510887.00,-2.4998016,-19.531534,-5.669011
1421631510907.00,1.1421249,-19.574345,8.95363
1421631510927.00,2.5402176,-17.315243,5.7353234
1421631510947.00,5.040618,-12.439133,3.2272887
1421631510967.00,4.995412,-8.417746,3.0192215
1421631510987.00,1.493594,-4.2078996,3.0527518
1421631511006.00,-3.4578094,0.23935227,1.9041902
1421631511026.00,-8.196356,3.6390824,-0.6664142
1421631511047.00,-10.039622,5.926027,-3.068469
1421631511067.00,-8.064031,7.190148,-1.9371217
1421631511088.00,-3.9939945,2.0170555,-0.36149827
1421631511106.00,1.4468912,-6.515501,-4.350703
1421631511170.00,5.5154305,-13.973891,-9.812695
1421631511171.00,3.32773,-13.922249,-13.476027
1421631511172.00,2.063908,-7.445517,-5.655689
1421631511187.00,-3.6553986,-4.0525227,14.404995
1421631511207.00,-7.100634,-13.173955,11.08954
1421631511226.00,-7.5549393,-10.190958,3.785478
1421631511247.00,-6.0071583,-7.318731,5.071005
1421631511268.00,-5.486541,-14.440321,8.871152
1421631511287.00,-1.3723462,-18.881886,10.915301
1421631511307.00,1.6724721,-19.486029,-1.4403049
1421631511328.00,5.9059687,-18.284178,-3.5378928
1421631511347.00,8.295449,-17.59576,3.661386
1421631511367.00,6.795269,-19.270626,-3.6130366
1421631511387.00,6.815178,-19.538868,-6.519842
1421631511406.00,4.0926394,-14.649586,-10.605745
1421631511471.00,0.9551637,-11.616893,-10.977722
1421631511473.00,-0.8887019,-7.3093004,-6.595135
1421631511474.00,0.531844,-3.7790415,-10.204579
1421631511487.00,2.872377,-0.8069719,-4.348607
1421631511507.00,4.3089395,2.119293,2.9618907
1421631511526.00,4.468957,0.7523355,0.39727387
1421631511547.00,2.8731253,-2.2176385,-2.9379406
1421631511567.00,2.191892,-6.8810406,-1.1561956
1421631511587.00,4.91937,-15.246096,0.54980665
1421631511607.00,1.4473403,-18.991457,-3.1494508
1421631511626.00,-5.6380258,-19.500998,-5.444029
1421631511646.00,-6.02542,-19.570303,-6.5695386
1421631511667.00,2.3168821,-19.579733,9.092691
1421631511687.00,2.093696,-19.47555,7.115004
1421631511707.00,4.30864,-11.94486,2.6219475
1421631511726.00,2.5981472,-7.9809537,1.6658858
1421631511749.00,0.083526306,-4.2260118,2.6782305
1421631511769.00,-4.0448885,0.3686833,2.4542964
1421631511832.00,-7.5390725,3.1874716,-1.1505075
1421631511833.00,-9.767339,5.595963,-2.2764661
1421631511834.00,-8.797505,6.887028,2.9608428
1421631511847.00,-3.5136433,2.9356952,2.5153692
1421631511870.00,1.7036073,-3.4771192,-4.489165
1421631511887.00,5.754334,-11.892919,-16.583414
1421631511909.00,2.1531227,-10.380464,-7.992629
1421631511927.00,-2.9672794,-3.754193,10.939252
1421631511947.00,-7.639663,-14.722035,9.23774
1421631511967.00,-7.268435,-18.51395,6.5542703
1421631511987.00,-5.5886283,-8.544382,4.5664043
1421631512007.00,-7.776928,-8.695717,6.644383
1421631512027.00,-5.9477315,-16.95988,13.662838
1421631512047.00,-3.234474,-19.224672,6.768475
1421631512066.00,5.5468655,-18.830692,-10.734926
1421631512087.00,10.142159,-17.98016,-1.7100439
1421631512145.00,8.093819,-19.363434,-2.3831942
1421631512146.00,6.5720835,-18.794167,-5.057383
1421631512147.00,3.7800894,-12.61352,-12.419673
1421631512168.00,1.4997313,-12.639416,-13.096266
1421631512186.00,0.07439529,-7.2389464,-5.532495
1421631512207.00,1.121468,-4.17392,-6.787485
1421631512227.00,4.5276346,-2.5556355,-3.573369
1421631512247.00,5.7444544,0.64470935,-0.068258055
1421631512267.00,6.0258694,-0.23665787,-1.2672647
1421631512287.00,2.2107527,-1.4124627,0.40565643
1421631512307.00,1.1799961,-2.8936327,1.6627423
1421631512327.00,2.44292,-8.800948,0.07185058
1421631512350.00,6.0876904,-17.166452,0.76371187
1421631512367.00,1.5323634,-19.252665,-3.9436991
1421631512386.00,-4.9302974,-19.536474,-5.4422326
1421631512457.00,-4.9683185,-19.575094,-0.6756949
1421631512458.00,-0.583786,-19.520157,7.9453278
1421631512459.00,1.8589842,-16.351696,5.068011
1421631512468.00,4.9412246,-11.745475,1.9661614
1421631512487.00,1.7115408,-8.615933,1.8666184
1421631512507.00,-0.73152876,-4.228856,3.7464094
1421631512527.00,-4.264033,-0.38724473,1.6283139
1421631512547.00,-7.442972,2.975213,-1.255589
1421631512567.00,-9.536968,5.1135163,0.85562074
1421631512587.00,-9.355545,4.6719346,2.4845333
1421631512607.00,-4.3490562,-0.31808853,-1.1379336
1421631512627.00,2.5590785,-10.255175,-13.509407
1421631512647.00,4.4074345,-18.101856,-14.994169
1421631512667.00,2.052382,-7.5764947,-7.394024
1421631512688.00,0.89648575,-3.3766782,13.669274
1421631512707.00,-4.7609997,-14.678177,6.9311867
1421631512728.00,-6.5288234,-11.53621,10.341844
1421631512788.00,-6.909332,-2.023492,9.139844
1421631512789.00,-8.365205,-10.143656,7.2682858
1421631512790.00,-5.9586587,-18.149158,13.1762
1421631512807.00,-2.3309526,-19.386335,4.1405396
1421631512827.00,4.560716,-18.142872,-11.671679
1421631512847.00,8.331824,-16.957787,-0.98195803
1421631512867.00,7.477251,-19.160305,-3.160827
1421631512887.00,4.5185037,-18.71558,-6.0906844
1421631512907.00,0.08996292,-12.853621,-12.087664
1421631512926.00,1.1952645,-11.605367,-10.0450115
1421631512947.00,0.41748184,-6.474636,-6.172115
1421631512966.00,0.6619235,-4.170178,-9.6725855
1421631512987.00,3.44314,-1.3377681,-3.4515226
1421631513007.00,5.9939857,0.7283853,2.224075
1421631513027.00,4.419859,0.006436615,0.9592053
1421631513050.00,1.8992505,-2.7888505,0.68946624
1421631513068.00,2.930905,-12.380305,-1.7396823
1421631513159.00,0.98570025,-17.438288,-2.4254065
1421631513160.00,-5.1192045,-19.289637,-4.6336145
1421631513161.00,-7.3961196,-19.541563,-6.7355433
1421631513162.00,-3.1994467,-19.575691,-1.8360819
1421631513174.00,0.96668977,-19.580482,7.725734
1421631513186.00,4.3945613,-16.45139,3.5423837
1421631513207.00,4.5123663,-11.2021055,1.0803035
1421631513231.00,2.3093977,-7.9290113,3.0023067
1421631513257.00,0.53783154,-3.822451,2.811753
1421631513270.00,-3.6061509,-0.036524046,2.1818628
1421631513287.00,-7.2111044,3.3521292,-0.85277665
1421631513308.00,-10.275232,6.489455,-0.28231293
1421631513327.00,-8.019723,7.6092763,3.1777418
1421631513347.00,-2.561623,2.5605752,1.1783496
1421631513367.00,2.3728657,-6.111042,-6.730005
1421631513387.00,5.577701,-17.22034,-17.12888
1421631513707.00,3.393144,-11.41571,-8.732242
1421631513708.00,-0.2561174,2.1797671,12.119247
1421631513709.00,-4.505331,-7.0207005,10.262659
1421631513710.00,-15.318246,-17.636625,8.101752
1421631513711.00,-8.089777,-10.393038,1.2766951
1421631513712.00,-5.9652452,-7.0254903,3.926036
1421631513713.00,-3.8022432,-16.856747,11.731255
1421631513714.00,0.64261365,-19.210602,12.019855
1421631513715.00,7.1054244,-19.530785,-7.6068816
1421631513717.00,10.852732,-17.564325,-4.8978148
1421631513718.00,6.2108846,-19.212399,-2.2730231
1421631513719.00,4.059558,-18.693726,-5.1063313
1421631513720.00,-1.1645782,-13.070969,-11.957734
1421631513722.00,0.22677842,-3.8055363,-12.287498
1421631513743.00,1.3630655,-1.631607,-1.986968
1421631513754.00,3.4811609,1.7995578,1.1590397
1421631513767.00,3.5634897,0.054037627,-1.2847782
1421631513866.00,1.9233503,-2.1636007,-0.34069154
1421631513867.00,0.5548961,-5.0305886,-0.41852966
1421631513868.00,2.9349468,-12.513827,-0.9264235
1421631513869.00,5.535639,-18.491796,-0.343835
1421631513871.00,-1.9068847,-19.433039,-2.741998
1421631513887.00,-4.613556,-19.561022,-3.628305
1421631513907.00,0.40505767,-19.578386,8.039183
1421631513928.00,-0.2616559,-18.401833,4.544699
1421631513949.00,0.91774154,-15.050003,2.3954687
1421631513967.00,1.5810122,-10.183923,0.56851774
1421631513988.00,0.24758515,-6.134244,2.2079086
1421631514009.00,-2.1778212,-1.4212945,2.6081762
1421631514030.00,-5.7348742,1.9440074,-0.44741958
1421631514047.00,-8.187374,4.384981,0.80083466
1421631514107.00,-8.118218,3.4817595,2.1246817
1421631514108.00,-2.9059072,-0.25926086,-0.36703673
1421631514109.00,4.862638,-9.595346,-11.605516
1421631514127.00,4.4643164,-17.953365,-14.958095
1421631514147.00,2.048041,-8.304431,-7.874824
1421631514167.00,0.44023454,4.402345,8.622969
1421631514187.00,-0.6237529,0.16585511,12.408446
1421631514209.00,-10.294542,-13.480817,7.89608
1421631514231.00,-8.836575,-16.870367,6.3152175
1421631514247.00,-4.386628,-7.988887,3.7627254
1421631514267.00,-3.9933958,-9.931847,5.8824673
1421631514287.00,-2.9044104,-15.088024,10.108629
1421631514306.00,0.002095642,-18.969902,2.3971152
1421631514327.00,6.9028955,-16.34062,-6.28977
1421631514346.00,7.189699,-17.746496,-1.2410692
1421631514367.00,5.7675066,-19.33155,-2.5224047
1421631514388.00,3.726351,-17.51882,-5.019961
1421631514469.00,0.6604266,-12.039015,-11.984079
1421631514470.00,0.47750703,-11.451786,-11.481125
1421631514471.00,0.28336075,-6.7636847,-6.6012726
1421631514473.00,2.3602917,-4.0185432,-8.638686
1421631514486.00,5.0466056,-1.4509327,-6.395151
1421631514507.00,6.6828527,0.53902906,1.7402811
1421631514527.00,2.8443851,-0.22528152,4.041745
1421631514548.00,-0.42107436,-0.68587375,-0.05493576
1421631514569.00,-1.4760804,-4.1341033,-2.6282346
1421631514589.00,2.1644988,-12.6180105,-3.8456528
1421631514608.00,5.1615663,-18.634,-1.2765454
1421631514627.00,-3.9089713,-19.452349,-5.0337324
1421631514646.00,-5.6203623,-19.563568,-6.7901797
1421631514667.00,1.0322534,-19.578836,5.731132
1421631514687.00,1.4025834,-18.645676,3.5414855
1421631514762.00,5.497917,-14.222973,1.5606546
1421631514763.00,3.293601,-10.973231,0.6439609
1421631514764.00,0.98944247,-7.8155475,3.5013688
1421631514774.00,-2.20731,-2.6909542,3.2727942
1421631514787.00,-6.7979636,1.1189232,0.03397934
1421631514807.00,-9.611363,4.9716115,-3.7294946
1421631514827.00,-9.450448,6.1689715,-0.64949936
1421631514846.00,-6.0213785,2.8138485,2.5893154
1421631514868.00,0.11196716,-4.6990285,-1.6094531
1421631514887.00,6.075416,-16.387472,-14.145584
1421631514907.00,4.60203,-17.11032,-17.433796
1421631514927.00,1.8523979,-3.7555404,-1.905238
1421631514947.00,-2.7199938,3.997587,11.901002
1421631514968.00,-9.127869,-10.106533,9.607172
1421631514987.00,-11.923455,-17.737215,9.545799
1421631515008.00,-7.9204793,-8.634046,4.757856
1421631515028.00,-4.626579,-12.221934,6.205795
1421631515084.00,-0.16540603,-18.30708,11.154204
1421631515086.00,3.9733374,-19.40789,3.5902839
1421631515087.00,7.9267664,-17.320631,-8.049511
1421631515107.00,7.3974667,-15.983762,-1.5587087
1421631515127.00,4.8460226,-18.952837,-2.7946885
1421631515148.00,3.3091686,-17.878971,-6.0305095
1421631515167.00,0.321232,-12.169543,-12.13766
1421631515188.00,0.18276992,-9.207204,-10.9792185
1421631515209.00,-0.26734406,-5.9559646,-6.73225
1421631515227.00,0.4125421,-4.2790017,-9.06006
1421631515247.00,3.911516,-2.7659483,-7.784861
1421631515267.00,6.2233086,-0.7738907,-0.291893
1421631515287.00,3.7534447,-0.6182144,3.7670662
1421631515307.00,0.49711624,-0.81789917,1.4370117
1421631515327.00,-0.55130357,-4.6777725,-0.6316864
1421631515347.00,3.1006522,-14.904955,-2.203867
1421631515404.00,3.4810112,-18.945053,-1.6522641
1421631515405.00,-3.5832486,-19.49456,-5.426366
1421631515415.00,-5.456603,-19.569405,-6.6590524
1421631515427.00,-0.22094055,-19.579584,8.116721
1421631515447.00,1.0888357,-19.58093,3.4563127
1421631515467.00,4.331393,-16.468004,2.8452833
1421631515486.00,3.3473392,-11.45433,-0.18351837
1421631515508.00,0.52316207,-8.4095125,2.8086095
1421631515529.00,-0.5510042,-3.8883142,3.936514
1421631515547.00,-4.660109,1.0503658,1.9670595
1421631515566.00,-7.714807,4.8654823,-2.0411553
1421631515587.00,-9.09359,6.6518674,-1.5123051
1421631515607.00,-7.1807175,6.0189834,2.2017715
1421631515628.00,-3.187322,0.9687854,2.277963
1421631515647.00,1.1081456,-6.3837748,-3.3659005
1421631515668.00,6.9100804,-16.948805,-15.500716
1421631515736.00,3.8149667,-15.265555,-14.326109
1421631515737.00,1.6012203,-4.7003756,-2.642006
1421631515738.00,-3.3949401,-2.4358845,11.6136
1421631515748.00,-11.158396,-16.343912,10.2563715
1421631515770.00,-7.6010437,-12.301569,7.340286
1421631515787.00,-6.7166824,-4.4641666,5.0296907
1421631515807.00,-5.417235,-9.5793295,6.5267277
1421631515827.00,-2.1939876,-17.709972,12.068204
1421631515848.00,1.8992505,-19.32661,8.508606
1421631515867.00,8.42029,-18.105,-10.201286
1421631515887.00,8.7897215,-15.092216,-2.9719198
1421631515907.00,6.278843,-17.438437,-0.18202148
1421631515927.00,4.5089235,-18.589542,-3.9127135
1421631515947.00,1.0344987,-13.163925,-11.928544
1421631515968.00,0.46553192,-11.587404,-12.284354
1421631515986.00,0.32183075,-7.2239776,-7.982151
1421631516007.00,-0.19489472,-4.1484733,-8.654852
1421631516078.00,1.8497036,-2.2906866,-3.8911583
1421631516082.00,3.982618,0.64066774,2.2661376
1421631516083.00,5.082531,0.23411316,1.6116985
1421631516092.00,3.264262,-2.0426524,0.015118561
1421631516107.00,3.13538,-7.70837,-1.4503341
1421631516127.00,4.954996,-16.049175,0.58812696
1421631516147.00,-0.33215928,-19.100729,-2.6336234
1421631516173.00,-5.4851933,-19.515816,-3.1120286
1421631516194.00,-5.9866505,-19.572248,-6.028863
1421631516207.00,-1.9712508,-19.579884,3.3470397
1421631516230.00,1.0382409,-19.58093,5.824987
1421631516247.00,3.5618432,-15.275884,2.210154
1421631516267.00,3.5592985,-10.100995,0.31419662
1421631516287.00,1.6435821,-7.5284443,3.3750315
1421631516307.00,-0.2639012,-3.1913636,3.412753
1421631516329.00,-4.3459125,0.59127045,1.201701
1421631516393.00,-7.796986,3.9465432,-1.1922706
1421631516395.00,-8.701705,5.903873,1.4873071
1421631516396.00,-6.685697,5.8953404,2.8870463
1421631516407.00,-1.2284954,1.131497,-1.3545332
1421631516427.00,5.4040623,-9.317973,-10.590627
1421631516447.00,4.2411304,-16.731756,-18.22999
1421631516467.00,2.72179,-7.4110885,-5.275779
1421631516487.00,-2.4920177,1.6455281,13.600418
1421631516507.00,-9.589957,-14.336587,8.137527
1421631516527.00,-8.765323,-18.250797,6.8615813
1421631516547.00,-5.748047,-6.194718,3.0064979
1421631516567.00,-6.6099544,-7.514374,6.6080084
1421631516588.00,-3.4982255,-17.505198,16.052319
1421631516607.00,0.46089157,-19.298767,10.873089
1421631516627.00,8.048912,-19.031124,-9.621243
1421631516647.00,10.575209,-17.160465,-4.812792
1421631516667.00,7.0614157,-19.099234,-3.2612681
1421631516725.00,4.1101527,-18.25948,-5.4973183
1421631516726.00,0.6186635,-12.49826,-12.184812
1421631516727.00,1.0850935,-9.459429,-9.799072
1421631516747.00,-0.100291446,-4.396208,-5.0466056
1421631516774.00,0.8244855,-2.7970834,-7.2479277
1421631516787.00,3.9442978,-1.4576688,-1.4148577
1421631516808.00,5.390141,0.88061875,3.1368768
1421631516827.00,4.0689883,-0.29653335,-0.91549623
1421631516847.00,0.97881454,-2.851121,-3.8270915
1421631516867.00,0.36314484,-7.345375,-1.3766872
1421631516887.00,4.4300375,-15.611036,2.0222945
1421631516907.00,1.557062,-19.041153,-1.9148182
1421631516927.00,-5.156926,-19.507734,-4.6752276
1421631516947.00,-4.3459125,-19.571201,-5.848338
1421631516968.00,0.9089099,-19.579733,5.4603453
1421631517027.00,0.4020639,-18.274448,4.6656475
1421631517028.00,4.352499,-13.142071,3.2219
1421631517033.00,3.1184652,-8.613837,1.8538948
1421631517047.00,0.8015831,-4.365372,3.129991
1421631517067.00,-3.1018496,0.6050418,2.5854235
1421631517087.00,-7.1182976,3.450325,-0.16181351
1421631517108.00,-8.981623,5.9637485,-0.4894821
1421631517129.00,-8.139174,6.136339,2.0303779
1421631517153.00,-3.1362782,2.0422032,0.7427554
1421631517167.00,4.6912446,-8.475525,-11.430829
1421631517187.00,6.0843973,-17.884209,-16.438965
1421631517207.00,2.403402,-10.597662,-7.1620064
1421631517227.00,0.2321672,-0.045056306,7.9981675
1421631517247.00,-2.1917422,-3.9947429,11.039992
1421631517270.00,-10.294093,-15.809524,9.248368
1421631517287.00,-7.0885096,-15.074852,6.871311
1421631517383.00,-7.3663316,-8.121661,4.9594865
1421631517385.00,-6.2535458,-14.304255,8.884924
1421631517390.00,-3.035837,-18.801651,14.665603
1421631517391.00,0.06960525,-19.475101,5.02999
1421631517392.00,6.229296,-17.703535,-13.286969
1421631517413.00,7.470216,-19.031574,-7.2479277
1421631517427.00,6.5812144,-19.28335,-4.053421
1421631517448.00,4.342769,-14.182557,-5.4438796
1421631517467.00,1.7829423,-10.265203,-11.120674
1421631517487.00,2.1552181,-8.007748,-8.750803
1421631517508.00,0.5914201,-4.312532,-6.3935046
1421631517529.00,2.2975721,-3.2741413,-6.371201
1421631517548.00,4.665049,-0.18247055,1.9878662
1421631517567.00,6.3295875,0.7988887,1.2033477
1421631517587.00,3.7190163,-1.3494438,-1.4370117
1421631517607.00,0.8171507,-4.1580534,-1.1529025
1421631517627.00,3.0055997,-13.242212,1.0629396
1421631517647.00,3.47682,-18.584154,1.5214362
1421631517701.00,-4.1691303,-19.445463,-2.8880942
1421631517702.00,-5.96285,-19.56267,-5.213808
1421631517712.00,-2.8104057,-19.578686,-6.274652
1421631517727.00,2.4363337,-19.580782,6.465505
1421631517747.00,2.061513,-18.31217,3.009342
1421631517767.00,4.134552,-12.634177,1.9380199
1421631517787.00,1.6551082,-8.61713,2.141896
1421631517807.00,0.42212218,-4.571344,4.694388
1421631517827.00,-2.788551,0,3.1292427
1421631517847.00,-6.393954,4.338428,-0.046104126
1421631517867.00,-8.913514,7.134314,-1.2496015
1421631517887.00,-8.030351,7.0774326,1.6569045
1421631517909.00,-2.5623715,1.1856843,1.439257
1421631517928.00,2.8961773,-7.2524185,-7.616611
1421631517947.00,5.624254,-17.214054,-17.52825
1421631518024.00,3.3063245,-13.191917,-8.602611
1421631518026.00,-1.0813513,-4.333788,9.874665
1421631518027.00,-8.082742,-14.769037,7.0187545
1421631518028.00,-8.108488,-13.250296,8.757988
1421631518047.00,-6.2108846,-1.5531702,6.587501
1421631518067.00,-7.99712,-2.1481829,5.8188496
1421631518087.00,-6.1339445,-14.618601,10.953772
1421631518109.00,-0.64440995,-18.906134,13.978532
1421631518131.00,7.72783,-19.459234,-7.0205507
1421631518152.00,11.101215,-15.941699,-7.2841525
1421631518167.00,8.363109,-16.716936,0.86699706
1421631518187.00,5.258565,-19.157911,-3.9426513
1421631518207.00,2.7619066,-15.699353,-8.92534
1421631518227.00,0.21001327,-10.817704,-13.918956
1421631518247.00,-0.66162413,-8.318052,-11.143577
1421631518267.00,-0.92328,-3.9770796,-7.8447366
1421631518332.00,1.2778926,-2.7836115,-4.9403267
1421631518333.00,3.295996,0.05029541,3.0777497
1421631518334.00,5.512437,0.4062552,-0.34623
1421631518347.00,3.2566278,-1.9525397,-4.0233335
1421631518367.00,0.3384462,-2.9937744,-1.7212706
1421631518388.00,0.5885761,-7.8597054,-0.48379394
1421631518407.00,7.0205507,-17.233213,0.38574782
1421631518428.00,3.4759219,-19.261795,-3.900439
1421631518450.00,-3.4537678,-19.537672,-4.9909215
1421631518467.00,-5.284012,-19.575243,-2.8675869
1421631518487.00,-1.5280224,-19.580332,4.7961764
1421631518508.00,0.7960446,-17.11421,5.4557047
1421631518527.00,5.168153,-12.07015,1.4048287
1421631518547.00,2.8569589,-8.385562,1.9155666
1421631518568.00,0.53813094,-4.4271936,3.870052
1421631518588.00,-3.9362147,-0.55160296,3.8064344
1421631518671.00,-7.5547895,3.586841,0.07334747
1421631518673.00,-10.206676,6.2840824,-0.11630814
1421631518674.00,-9.17996,5.0859737,-0.15163468
1421631518675.00,-3.036286,0.04580475,-1.9131715
1421631518687.00,4.8505135,-10.374177,-12.456496
1421631518707.00,4.755162,-17.678238,-15.0767975
1421631518727.00,2.0311263,-6.5720835,-1.4660513
1421631518747.00,-0.98001206,2.6406586,12.62804
1421631518767.00,-6.6096554,-11.890224,5.734575
1421631518787.00,-7.407945,-18.535057,6.8518515
1421631518807.00,-5.4669313,-8.783285,3.9137614
1421631518828.00,-7.505692,-5.146448,6.07347
1421631518847.00,-5.469626,-15.010036,12.021651
1421631518867.00,-2.3444247,-18.959423,11.722872
1421631518888.00,4.786147,-19.46642,-3.428321
1421631518907.00,9.988429,-17.520466,-5.9707837
1421631518928.00,7.676786,-19.201172,-3.4440382
1421631518987.00,5.6733522,-18.872154,-4.0107594
1421631518991.00,2.5346792,-12.278816,-9.5452
1421631518992.00,2.006727,-10.272987,-11.129656
1421631519007.00,1.427731,-6.8672695,-7.565717
1421631519027.00,1.1410772,-3.1686108,-8.708291
1421631519047.00,4.2343946,-1.0590477,-1.843716
1421631519067.00,5.307812,1.403182,3.711831
1421631519088.00,3.5771112,-0.18022522,-0.62569886
1421631519107.00,0.9559122,-2.7590625,-2.8135493
1421631519127.00,1.2165202,-8.357121,-1.3341756
1421631519149.00,5.346582,-17.061071,2.1799169
1421631519168.00,-1.3310322,-19.238295,-2.6128166
1421631519188.00,-6.5571146,-19.534527,-4.3547444
1421631519207.00,-5.447023,-19.574795,-6.149961
1421631519227.00,0.23905289,-19.580332,6.9552865
1421631519247.00,0.5959108,-17.782122,4.6898975
1421631519318.00,4.7162423,-11.444152,3.5398388
1421631519319.00,2.638114,-7.9900846,3.7221596
1421631519320.00,0.3637436,-3.833079,4.9250584
1421631519329.00,-3.5805542,1.0099498,4.251459
1421631519347.00,-6.5431933,4.5217967,1.2976515
1421631519367.00,-8.524773,7.104676,0.89618635
1421631519387.00,-7.835007,5.9935365,1.1615845
1421631519407.00,-1.4539266,1.3260924,-3.7411702
1421631519427.00,5.7514896,-14.110257,-17.054785
1421631519447.00,3.4500256,-15.741266,-12.735517
1421631519467.00,2.4897726,-4.1935296,4.305796
1421631519487.00,-1.3178595,-8.918454,10.987452
1421631519507.00,-10.860066,-18.130747,9.197174
1421631519527.00,-5.5968614,-7.4311466,5.283263
1421631519549.00,-8.7157755,-0.7833211,5.7113733
1421631519569.00,-8.463699,-13.548775,11.201956
1421631519588.00,-4.135151,-18.760637,16.327896
1421631519608.00,1.730701,-19.469563,2.2841003
1421631519669.00,8.532856,-17.696201,-14.80197
1421631519670.00,6.4908023,-18.112335,-2.8491752
1421631519671.00,5.032385,-18.619032,-3.5067577
1421631519687.00,3.560945,-14.325061,-6.88134
1421631519707.00,2.5069866,-11.607761,-11.766582
1421631519728.00,2.1583617,-8.768167,-9.4772415
1421631519748.00,-0.17992584,-4.290528,-9.858649
1421631519773.00,1.6642392,-2.6297314,-5.6577845
1421631519788.00,3.5076559,0.6706055,2.3704705
1421631519809.00,4.5527825,0.9424402,1.9568807
1421631519828.00,3.6148329,-1.5048207,-1.2014017
1421631519847.00,3.9847138,-7.0085754,-1.9149678
1421631519867.00,7.5929604,-16.275505,3.5804045
1421631519888.00,2.0760329,-19.131565,-1.5491285
1421631519907.00,-4.1296124,-19.520008,-1.8332378
1421631519977.00,-5.699548,-19.572847,-3.8556821
1421631519979.00,-2.9047096,-19.580032,0.51013917
1421631519982.00,0.03757187,-19.58093,7.2645435
1421631519991.00,3.4413438,-15.804435,3.2221994
1421631520007.00,4.070186,-9.153465,1.2407699
1421631520027.00,1.5063176,-6.192772,4.810247
1421631520050.00,-1.1644286,-1.0512639,3.6515067
1421631520072.00,-4.854106,2.1911435,0.06975494
1421631520095.00,-8.457562,4.915029,-1.0270143
1421631520110.00,-9.210347,6.6455803,1.5295193
1421631520129.00,-5.9249787,4.830156,2.0502863
1421631520147.00,0.1911525,-1.2485536,-3.4067657
1421631520167.00,4.5556264,-12.471166,-13.876743
1421631520187.00,3.950435,-15.357015,-15.784975
1421631520207.00,2.1564157,-3.995641,0.11645783
1421631520228.00,-0.9222322,-3.522475,13.204491
1421631520282.00,-9.072933,-16.428486,7.5507483
1421631520283.00,-6.650221,-14.369518,5.60225
1421631520293.00,-6.4705944,-4.684808,4.65023
1421631520307.00,-5.647007,-11.31497,8.5645895
1421631520327.00,-2.2870939,-18.433119,15.927479
1421631520347.00,0.39787263,-19.424955,5.6907163
1421631520367.00,7.438482,-18.496885,-11.019035
1421631520387.00,8.243058,-17.591269,-1.7868342
1421631520407.00,5.89085,-19.293678,-2.737657
1421631520427.00,5.0983977,-18.806742,-4.406237
1421631520447.00,1.6293617,-10.804682,-12.217443
1421631520472.00,0.3221301,-9.790541,-12.344529
1421631520487.00,-0.6286926,-5.287754,-6.570287
1421631520508.00,0.30820906,-3.4805622,-11.852802
1421631520527.00,2.173031,-1.5093113,-2.5162673
1421631520547.00,4.705914,1.2187656,3.9718406
1421631520620.00,4.7023215,-0.5797444,1.9708017
1421631520621.00,1.8543439,-4.131708,-1.5937358
1421631520622.00,3.35647,-11.639496,-1.974993
1421631520632.00,3.7145257,-18.35947,-1.4726377
1421631520647.00,-3.1231055,-19.414927,-3.6464171
1421631520667.00,-6.3988934,-19.558477,-5.7300844
1421631520687.00,-1.6256195,-19.578087,3.4158967
1421631520708.00,1.1532019,-19.580782,6.314319
1421631520727.00,2.8409421,-15.8343725,3.2828233
1421631520747.00,3.9788759,-8.88642,1.7771045
1421631520767.00,2.1844075,-6.738088,4.2544527
1421631520787.00,-0.99019086,-1.6229252,3.818709
1421631520807.00,-5.629493,2.0203485,2.1378543
1421631520827.00,-9.748478,5.2751803,-0.4724176
1421631520847.00,-10.4671335,7.4347396,3.2811768
1421631520867.00,-6.913523,5.4697757,3.080145
1421631520887.00,0.79439807,0.21914428,-1.9893631
1421631520951.00,7.9823008,-14.303805,-14.499897
1421631520952.00,5.767357,-17.06661,-15.73902
1421631520953.00,3.2780333,-6.404432,-7.05453
1421631520967.00,-0.9063652,4.9898734,13.366754
1421631520987.00,-3.1537917,0.34742752,11.962374
1421631521007.00,-14.7705345,-14.5421095,12.850777
1421631521027.00,-7.9820013,-18.715132,-3.2726445
1421631521048.00,-3.4925373,-6.7644334,-0.81041473
1421631521067.00,-3.45751,-6.506819,7.4206686
1421631521087.00,-0.41149428,-14.215638,16.05681
1421631521107.00,0.726589,-18.827698,8.295749
1421631521127.00,7.813751,-18.383272,-8.363558
1421631521147.00,9.384884,-18.90898,-2.6806257
1421631521167.00,7.3215747,-19.48977,-3.979774
1421631521187.00,5.8938437,-18.055754,-4.948709
1421631521207.00,0.8481363,-13.049713,-11.650573
1421631521227.00,-1.0150392,-10.0891695,-12.554992
1421631521297.00,0.9807605,-5.874384,-10.256521
1421631521297.00,3.5064583,-2.873275,-7.60269
1421631521298.00,4.7547126,0.93450665,2.0107687
1421631521307.00,5.4217253,0.49576905,1.6913328
1421631521330.00,3.327281,-1.0371932,-0.22932312
1421631521348.00,1.6892372,-3.0424232,-1.8911673
1421631521367.00,1.0566527,-6.7794023,-1.715283
1421631521387.00,6.9672613,-14.889537,2.6942472
1421631521408.00,6.342012,-18.942959,2.2683828
1421631521428.00,-1.5356566,-19.494411,-1.4144087
1421631521449.00,-6.166876,-19.569405,-3.432512
1421631521467.00,-5.0335827,-19.452648,-1.343606
1421631521487.00,-1.7676741,-19.563717,7.5805364
1421631521507.00,0.55265075,-17.32138,2.5047414
1421631521527.00,4.2246647,-10.642718,0.36718643
1421631521547.00,1.954785,-6.9889665,1.5765216
1421631521619.00,-0.96773756,-2.9693751,3.3735347
1421631521620.00,-4.9975076,0.7908055,0.48364425
1421631521622.00,-7.811955,3.7883222,-1.6772621
1421631521632.00,-8.663834,4.8395863,0.9198372
1421631521651.00,-6.88628,2.436633,2.0124152
1421631521667.00,-1.9499949,-1.6890875,-1.563349
1421631521687.00,4.267027,-9.882299,-13.590688
1421631521707.00,2.9292586,-15.997383,-15.02755
1421631521727.00,1.1615845,-4.9931664,-2.0547771
1421631521749.00,-0.6069878,3.338358,12.5584345
1421631521769.00,-4.357139,-12.235256,7.900571
1421631521787.00,-4.267176,-18.58191,2.7346632
1421631521807.00,-2.3523583,-7.3289094,3.81826
1421631521827.00,-5.468129,-3.357518,5.634882
1421631521848.00,-4.894821,-13.318853,10.757679
1421631521869.00,-3.3115635,-18.618134,13.229489
1421631521929.00,2.1474345,-19.450104,-0.56432647
1421631521930.00,8.394993,-16.126116,-7.0549793
1421631521931.00,5.7742424,-18.759888,-3.0861323
1421631521947.00,4.2480164,-19.469414,-2.9118948
1421631521967.00,2.674189,-15.9259815,-5.5172267
1421631521987.00,1.3383669,-11.556269,-12.6954
1421631522008.00,2.227368,-9.090446,-9.342522
1421631522027.00,1.9866687,-4.880601,-4.82806
1421631522047.00,3.834576,-3.2010932,-5.0076866
1421631522067.00,5.821694,-2.376009,-3.560047
1421631522087.00,7.19389,-1.0568024,-0.88091815
1421631522107.00,3.4688864,-1.0783576,1.4566209
1421631522127.00,0.44816804,-1.2811857,-0.10927276
1421631522147.00,0.4263135,-4.938231,-0.21240829
1421631522167.00,4.9508047,-14.287489,1.3699511
1421631522226.00,3.6155813,-18.857635,1.1352392
1421631522227.00,-2.7690916,-19.482735,-2.6490412
1421631522228.00,-5.195995,-19.567759,-4.7753696
1421631522247.00,-4.3737545,-19.520607,-4.802164
1421631522269.00,-0.3625461,-19.572847,9.816736
1421631522287.00,2.6845176,-19.354303,2.4013064
1421631522308.00,4.0737786,-13.523478,0.2758763
1421631522327.00,0.74365354,-8.876092,2.1386027
1421631522347.00,-1.1954141,-5.3729267,3.079546
1421631522367.00,-3.346441,-0.42481658,0.2389032
1421631522387.00,-7.267687,3.6333942,-1.9916084
1421631522407.00,-9.257199,5.6823335,0.10523117
1421631522427.00,-7.3678284,5.15498,3.0505064
1421631522447.00,-2.2162912,0.7870633,2.1664448
1421631522468.00,2.3652315,-5.0732503,-5.1543813
1421631522487.00,6.9067874,-15.4426365,-16.077467
1421631522507.00,5.109175,-13.651611,-12.862902
1421631522527.00,0.8250842,-1.9229013,6.0727215
1421631522580.00,-3.9896536,-2.9759614,8.6788025
1421631522581.00,-12.24304,-16.254698,9.049432
1421631522591.00,-6.314918,-13.718223,2.64964
1421631522607.00,-6.3307853,-5.016668,2.6301806
1421631522629.00,-4.359235,-10.785072,8.639284
1421631522647.00,0.2880011,-18.283579,14.819633
1421631522670.00,4.7113028,-19.404598,1.1458671
1421631522688.00,9.401051,-16.202158,-8.1915655
1421631522708.00,5.895041,-18.340462,0.20103195
1421631522727.00,2.6864634,-19.412382,-3.3103662
1421631522747.00,2.311643,-17.733025,-6.097121
1421631522767.00,0.27108628,-11.587404,-12.111913
1421631522787.00,0.84155,-9.504036,-10.058184
1421631522808.00,1.4678476,-4.9573913,-6.3608723
1421631522829.00,3.1916628,-2.665507,-6.6298633
1421631522848.00,4.5646076,-0.62135786,1.285377
1421631522947.00,4.6758265,0.3186873,2.2484744
1421631522948.00,3.680097,-0.91010743,-1.520538
1421631522949.00,2.0779788,-3.5516644,-3.325784
1421631522950.00,1.9475999,-7.560029,0.13172607
1421631522951.00,5.3244276,-15.309564,3.8731956
1421631522967.00,1.9356248,-19.00014,1.5251784
1421631522988.00,-3.1955547,-19.502045,-1.4196478
1421631523011.00,-5.1000443,-19.570454,-3.1142738
1421631523027.00,-4.7005253,-19.51387,-6.158344
1421631523050.00,-0.8812175,-19.571949,8.807834
1421631523067.00,1.4397061,-19.579884,1.7127384
1421631523087.00,4.3406734,-13.572426,-0.27183473
1421631523107.00,2.0089724,-8.782387,1.9535875
1421631523131.00,0.38978943,-5.6419177,3.8152661
