time_milisec,ax,ay,az
1421632145030.00,-0.8551717,3.7799397,9.281449
1421632145039.00,-0.74515045,3.706592,9.122929
1421632145057.00,-0.79290116,3.8106258,9.086105
1421632145077.00,-0.8469388,3.8175116,9.225316
1421632145097.00,-0.8704399,3.6229162,9.17517
1421632145117.00,-0.86445236,3.7275486,9.3309965
1421632145137.00,-0.91923845,3.6598892,9.354946
1421632145157.00,-0.7680528,3.8130207,9.306297
1421632145177.00,-0.69036436,3.7968545,9.177266
1421632145199.00,-0.7481442,3.6154318,9.347911
1421632145218.00,-0.7418573,3.5943255,9.411678
1421632145237.00,-0.93076444,3.7486546,9.298513
1421632145257.00,-0.9321117,3.5682797,8.739576
1421632145277.00,-0.771346,3.7823346,9.33414
1421632145298.00,-0.8364606,3.5076559,9.452394
1421632145317.00,-0.78721297,3.5226247,9.4491005
1421632145337.00,-0.68841845,3.5149906,9.456735
1421632145357.00,-0.70263886,3.4167948,9.421857
1421632145378.00,-0.80502594,3.456163,9.3613825
1421632145397.00,-0.85936296,3.6051033,9.25675
1421632145418.00,-0.6730005,3.4895434,9.1853485
1421632145437.00,-0.84169966,3.5447786,9.202414
1421632145457.00,-0.8017328,3.4718802,9.2256155
1421632145477.00,-0.6759943,3.3828154,9.207054
1421632145497.00,-0.57959473,3.4284704,9.167536
1421632145518.00,-0.7710466,3.7101846,9.537117
1421632145537.00,-0.82523394,3.773054,9.579479
1421632145557.00,-0.74006104,3.6025584,9.352851
1421632145577.00,-0.771346,3.6086957,9.220526
1421632145598.00,-0.7354207,3.6401303,9.328601
1421632145617.00,-0.6596782,3.6000137,9.201665
1421632145637.00,-0.65773225,3.5398388,9.102122
1421632145657.00,-0.71341646,3.6054025,9.219478
1421632145678.00,-0.72045183,3.695964,9.397458
1421632145697.00,-0.77149564,3.5904336,9.269324
1421632145718.00,-0.798739,3.6438725,9.394015
1421632145738.00,-0.8547226,3.6690202,9.309141
1421632145758.00,-0.6927594,3.6872823,9.228459
1421632145778.00,-0.89738387,3.4636474,9.296867
1421632145798.00,-0.87927157,3.5420842,9.338481
1421632145818.00,-0.7746391,3.5964212,9.363628
1421632145838.00,-0.8158035,3.6699183,9.268875
1421632145858.00,-0.77044785,3.6432738,9.196426
1421632145878.00,-0.70428544,3.6860847,9.152567
1421632145898.00,-0.68781966,3.6356397,9.251661
1421632145918.00,-0.6797365,3.7631745,9.330098
1421632145938.00,-0.7882608,3.7077897,9.352851
1421632145958.00,-0.76760375,3.6149826,9.259595
1421632145978.00,-0.74365354,3.5052607,9.234596
1421632145998.00,-0.69320846,3.594026,9.327553
1421632146018.00,-0.7089258,3.5802548,9.315878
1421632146038.00,-0.7961943,3.6971617,9.484577
1421632146059.00,-0.74230635,3.6024086,9.465866
1421632146078.00,-0.771346,3.7190163,9.371712
1421632146098.00,-0.6996451,3.6567457,9.251512
1421632146118.00,-0.6734496,3.5925293,9.253457
1421632146138.00,-0.82209045,3.514392,9.216484
1421632146158.00,-0.7499405,3.4802628,9.28609
1421632146178.00,-0.75053924,3.5486705,9.55014
1421632146198.00,-0.6572832,3.6360886,9.45434
1421632146218.00,-0.60010207,3.630251,9.36273
1421632146248.00,-0.57285875,3.5096018,9.09853
1421632146259.00,-0.658331,3.68354,8.873548
1421632146278.00,-0.76221496,3.5645375,8.889863
1421632146297.00,-0.73946226,3.4480796,9.005274
1421632146317.00,-0.79394895,3.2850688,9.427246
1421632146337.00,-0.74515045,3.4097593,9.452843
1421632146359.00,-0.7997868,3.6760557,9.301806
1421632146378.00,-0.62839323,3.5528617,9.393716
1421632146398.00,-0.63527894,3.4058676,9.480086
1421632146419.00,-0.8497829,3.6139348,9.5809765
1421632146438.00,-0.7961943,3.5925293,9.416319
1421632146458.00,-0.6939569,3.4738262,9.433084
1421632146480.00,-0.71326673,3.6265087,9.347162
1421632146498.00,-0.68527496,3.5576518,9.238638
1421632146517.00,-0.59635985,3.5130446,9.214239
1421632146537.00,-0.70293826,3.6477644,9.355096
1421632146558.00,-0.66716266,3.507057,9.413325
1421632146577.00,-0.6391708,3.595074,9.373208
1421632146597.00,-0.6593788,3.4227822,9.501042
1421632146617.00,-0.6439609,3.4890945,9.303903
1421632146637.00,-0.7455995,3.5554066,9.29043
1421632146657.00,-0.660726,3.4754727,9.22786
1421632146677.00,-0.66686326,3.5414855,9.282048
1421632146697.00,-0.64919996,3.5197806,9.418714
1421632146717.00,-0.6752458,3.548371,9.436227
1421632146737.00,-0.69216067,3.4019756,9.340726
1421632146757.00,-0.6915619,3.4462833,9.3188715
1421632146778.00,-0.78062665,3.5519636,9.24223
1421632146797.00,-0.7243437,3.4034724,9.054371
1421632146818.00,-0.78377014,3.4359548,9.402846
1421632146836.00,-0.8903485,3.577261,9.629925
1421632146860.00,-0.64725405,3.4215848,9.655222
1421632146895.00,-0.86954176,3.2189062,9.309141
1421632146912.00,-0.84334624,3.4459841,9.421108
1421632146927.00,-0.6237529,3.061284,9.496851
1421632146940.00,-0.26554778,3.3783247,9.380393
1421632146959.00,-0.5783972,3.9948926,9.195977
1421632146977.00,-0.42526567,3.7226088,9.676777
1421632146998.00,0.32721955,3.2698004,9.29552
1421632147018.00,0.12918137,3.5096018,10.016121
1421632147036.00,-0.05733078,3.4880466,9.624236
1421632147058.00,-0.31674135,3.2004945,9.41093
1421632147076.00,-0.47705796,3.1385233,10.166858
1421632147097.00,-0.7342232,3.739823,10.166409
1421632147117.00,-0.7427554,4.011957,9.669891
1421632147136.00,-0.47601014,4.8562016,8.196206
1421632147158.00,-0.18486556,4.2450223,8.122858
1421632147177.00,0.034428407,3.9880068,8.896899
1421632147196.00,0.5173242,3.688779,9.549392
1421632147217.00,1.1728112,3.9252872,8.602012
1421632147236.00,0.20746857,3.6365378,8.585397
1421632147256.00,-0.015567627,3.6052527,8.722362
1421632147276.00,0.2706372,3.5744169,9.548643
1421632147296.00,0.07110214,3.3462913,9.604029
1421632147318.00,0.023650818,3.4593062,9.527088
1421632147338.00,0.24099883,3.231929,9.106314
1421632147357.00,-0.02005829,3.3175511,9.136401
1421632147381.00,0.041613463,2.981051,8.623867
1421632147403.00,-0.022602998,3.4024246,9.636211
1421632147416.00,-0.23306534,3.6862345,9.824969
1421632147437.00,-0.3158432,3.3434472,9.92571
1421632147457.00,-0.3582051,3.6178267,9.497001
1421632147476.00,-0.18785934,3.6173775,9.079519
1421632147528.00,-0.2257306,3.7428167,9.03566
1421632147529.00,-0.27153534,3.824397,9.210048
1421632147649.00,-0.48394364,3.896547,9.352252
1421632147650.00,-0.51657575,3.7368293,9.481283
1421632147650.00,-0.50235534,3.654201,9.375604
1421632147651.00,-0.55654263,3.7773948,8.927585
1421632147652.00,-0.71221894,3.9534287,9.045839
1421632147652.00,-0.8577164,4.032614,9.34836
1421632147657.00,-0.9286688,3.8317318,9.509275
1421632147685.00,-0.72269714,3.6827917,9.257798
1421632147772.00,-0.5427713,3.7145257,9.125772
1421632147775.00,-0.6316864,3.7570372,9.272318
1421632147777.00,-0.7493417,3.7779937,9.485325
1421632147778.00,-0.65264285,3.6977606,9.302555
1421632147778.00,-0.5987549,3.4883459,8.9988365
1421632148020.00,-0.7291338,3.4612522,9.09359
1421632148021.00,-0.6053412,3.685037,9.219927
1421632148022.00,-0.47840515,3.575914,9.158405
1421632148022.00,-0.6182144,3.9016366,9.114696
1421632148023.00,-0.75203615,3.9592667,9.143287
1421632148024.00,-0.69829786,3.7353323,9.101673
1421632148025.00,-0.93091416,3.7297938,9.0953865
1421632148026.00,-0.8044272,3.9926472,9.207802
1421632148027.00,-0.92178315,3.8993912,9.335037
1421632148028.00,-1.0108479,3.8929546,9.470805
1421632148029.00,-0.96668977,3.800896,9.312435
1421632148030.00,-0.8966354,3.9643562,9.414073
1421632148040.00,-0.9500743,4.2448726,9.355096
1421632148061.00,-1.1626323,4.21269,9.000783
1421632148128.00,-1.4741346,4.6758265,7.806267
1421632148129.00,-1.5223343,4.244274,9.078771
1421632148130.00,-1.0951227,4.3761497,8.975186
1421632148138.00,-1.3239968,4.237089,8.914562
1421632148167.00,-1.2253518,4.179309,8.967552
1421632148223.00,-1.0984159,4.28005,8.972042
1421632148225.00,-1.1478131,4.262087,9.015303
1421632148226.00,-1.2145743,4.263883,9.051677
1421632148236.00,-1.008902,4.051625,9.095087
1421632148257.00,-0.789608,4.076772,9.027278
1421632148277.00,-0.93735075,3.9893541,8.96381
1421632148297.00,-0.9505234,3.9457946,9.100775
1421632148316.00,-0.9286688,3.7986507,9.197773
1421632148337.00,-0.86295545,3.9305265,9.388626
1421632148357.00,-0.8247849,3.8214033,9.400152
1421632148376.00,-0.93630296,3.73638,9.292227
1421632148399.00,-0.8879535,3.9752834,9.265732
1421632148418.00,-0.9063652,4.0131545,9.179811
1421632148438.00,-0.8009843,4.036506,9.270372
1421632148457.00,-0.9136999,4.020489,9.253457
1421632148477.00,-0.8042775,4.033512,9.250014
1421632148497.00,-0.79544586,3.807632,9.222173
1421632148518.00,-0.85532135,3.645519,9.120384
1421632148538.00,-0.9235794,3.7294946,9.207204
1421632148558.00,-0.80846876,3.7705092,9.3172245
1421632148579.00,-0.7099736,3.763324,9.252708
1421632148598.00,-0.5968089,3.6527042,8.994047
1421632148619.00,-0.5599855,3.744613,8.930429
1421632148638.00,-0.5815407,3.839366,9.050778
1421632148658.00,-0.62569886,3.5941758,9.268875
1421632148678.00,-0.69635195,3.642226,9.576935
1421632148698.00,-0.59755737,3.685935,9.482331
1421632148718.00,-0.63468015,3.762426,9.270672
1421632148738.00,-0.78377014,3.828289,9.125922
1421632148757.00,-0.71850586,3.6212695,9.342373
1421632148779.00,-0.6930588,3.7242553,9.387728
1421632148797.00,-0.977617,3.8425095,9.435479
1421632148817.00,-0.99363375,3.8139188,9.372609
1421632148837.00,-0.92402846,3.6977606,7.5610766
1421632148862.00,-0.67045575,3.9814205,7.993078
1421632148877.00,-1.7634828,4.4999423,10.301727
1421632148897.00,-1.2313395,3.3789234,10.381661
1421632148917.00,-0.78212357,3.3965867,9.650132
1421632148942.00,-0.6887178,3.3462913,8.947344
1421632148967.00,-0.8045769,3.7256026,8.8862705
1421632149003.00,-0.85382444,3.6598892,9.129664
1421632149012.00,-0.837209,3.5968702,9.373957
1421632149017.00,-0.8069719,3.5639389,9.600884
1421632149041.00,-0.61522067,3.4084122,9.358838
1421632149057.00,-0.6161188,3.5573525,9.104367
1421632149077.00,-0.7057823,3.5799553,9.159602
1421632149096.00,-0.6965016,3.5967207,9.3856325
1421632149117.00,-0.83346677,3.5075061,9.482631
1421632149137.00,-0.8454419,3.628754,9.386681
1421632149161.00,-0.6864725,3.6024086,9.299711
1421632149179.00,-0.6436615,3.6016603,9.339828
1421632149197.00,-0.6976991,3.629652,9.321566
1421632149217.00,-0.7165599,3.6106417,9.476494
1421632149237.00,-0.58842635,3.545527,9.514066
1421632149257.00,-0.68467623,3.4030235,9.142688
1421632149279.00,-0.4314029,3.3052766,9.192385
1421632149298.00,-0.59216857,3.4759219,9.1958275
1421632149317.00,-0.67449737,3.4976265,9.26154
1421632149338.00,-0.66671354,3.4072146,9.224268
1421632149358.00,-0.48903304,3.4964292,9.19463
1421632149423.00,-0.53334093,3.3817675,9.20885
1421632149424.00,-0.55145323,3.499423,9.304801
1421632149425.00,-0.56312895,3.5170863,9.347162
1421632149467.00,-0.6036946,3.4543667,9.305998
1421632149468.00,-0.69290906,3.5863922,9.328002
1421632149482.00,-0.7908055,3.5459762,9.346264
1421632149509.00,-0.80053526,3.6453695,9.320518
1421632149531.00,-0.84619033,3.572471,9.306148
1421632149546.00,-0.9223819,3.485951,9.365724
1421632149563.00,-0.9900412,3.5922298,9.5931015
1421632149579.00,-0.8930429,3.44793,9.743089
1421632149597.00,-0.855471,3.5582507,9.366622
1421632149629.00,-0.8783734,3.5482213,9.206455
1421632149646.00,-0.9147478,3.615282,9.149124
1421632149657.00,-1.0044113,3.6140845,9.222322
1421632149677.00,-0.9171428,3.731141,8.572972
1421632149697.00,-1.3021421,4.017346,9.661209
1421632149732.00,-1.065185,3.3569193,9.547596
1421632149747.00,-0.8455916,3.4518218,9.225017
1421632149757.00,-0.8114626,3.6944673,9.200467
1421632149785.00,-0.8214917,3.7486546,9.1941805
1421632149811.00,-0.87687653,3.5762131,9.120534
1421632149823.00,-0.78885955,3.662883,9.3735075
1421632149838.00,-0.67734146,3.6949165,9.295071
1421632149861.00,-0.8168514,3.538791,9.248518
1421632149877.00,-0.6279442,3.4750237,9.26184
1421632149897.00,-0.6180647,3.4278717,9.589658
1421632149917.00,-0.5783972,3.4155972,9.679023
1421632149937.00,-0.5426216,3.5040634,9.51152
1421632149959.00,-0.6420149,3.3510814,9.45449
1421632149977.00,-0.83152086,3.5289116,9.346115
1421632149998.00,-0.70174074,3.612887,9.339977
1421632150017.00,-0.75338334,3.7423677,9.266031
1421632150037.00,-0.690065,3.6555483,9.383088
1421632150057.00,-0.6499484,3.7184174,9.491313
1421632150077.00,-0.7232959,3.6170783,9.332343
1421632150099.00,-0.6420149,3.52487,9.363778
1421632150118.00,-0.5490582,3.4744248,9.258547
1421632150137.00,-0.6090834,3.5832486,9.129066
1421632150159.00,-0.66431856,3.5458264,9.274564
1421632150178.00,-0.61028093,3.4356556,9.282348
1421632150197.00,-0.5242099,3.447481,9.1991205
1421632150218.00,-0.4537065,3.5706747,9.113948
1421632150238.00,-0.6212082,3.5160384,9.149274
1421632150257.00,-0.5834866,3.5374439,9.280701
1421632150278.00,-0.7475455,3.6221676,9.401949
1421632150298.00,-0.6839278,3.449427,9.389824
1421632150317.00,-0.6197113,3.4489777,9.217083
1421632150337.00,-0.5914201,3.3682957,9.150921
1421632150357.00,-0.6234535,3.407514,9.354647
1421632150377.00,-0.58812696,3.5308576,9.368717
1421632150397.00,-0.55654263,3.4524207,9.333391
1421632150417.00,-0.44981462,3.4817595,9.231004
1421632150437.00,-0.46897477,3.359464,9.352102
1421632150457.00,-0.5150789,3.4486785,9.408535
1421632150477.00,-0.42691222,3.462899,9.348809
1421632150497.00,-0.5632787,3.3676968,9.237441
1421632150517.00,-0.5137317,3.5964212,9.271869
1421632150538.00,-0.5942642,3.512446,9.397308
1421632150559.00,-0.5481601,3.5191817,9.278904
1421632150579.00,-0.5945636,3.4923875,9.3944645
1421632150598.00,-0.57944506,3.406616,9.418714
1421632150619.00,-0.5041516,3.350782,9.383836
1421632150638.00,-0.43349853,3.484005,9.409284
1421632150664.00,-0.40805146,3.4606535,9.230255
1421632150678.00,-0.47975236,3.6010616,9.349558
1421632150698.00,-0.5402266,3.5033147,9.464818
1421632150719.00,-0.49621812,3.4471815,9.360785
1421632150739.00,-0.52480865,3.5548077,9.370364
1421632150757.00,-0.54247195,3.5618432,9.452543
1421632150777.00,-0.5016069,3.4910402,9.370065
1421632150797.00,-0.55010605,3.4599051,9.231453
1421632150817.00,-0.7189549,3.4724789,9.278156
1421632150839.00,-0.61073,3.667224,9.33429
1421632150858.00,-0.48364425,3.4757721,9.342821
1421632150878.00,-0.5990543,3.4757721,9.383388
1421632150897.00,-0.41673338,3.4482293,9.3533
1421632150919.00,-0.4590953,3.3382082,9.294023
1421632150938.00,-0.48648834,3.453169,9.434731
1421632150957.00,-0.49442184,3.3750315,9.488468
1421632150977.00,-0.5885761,3.387905,9.286538
1421632150997.00,-0.5536986,3.5510654,9.207952
1421632151017.00,-0.4948709,3.5829492,9.433682
1421632151037.00,-0.5417235,3.6052527,9.316177
1421632151057.00,-0.6556366,3.624862,9.3771
1421632151077.00,-0.7807764,3.528313,9.398207
1421632151099.00,-0.6192622,3.431614,9.593999
1421632151118.00,-0.5715115,3.470533,9.420061
1421632151141.00,-0.7098239,3.3627572,9.5455
1421632151159.00,-0.7322772,3.5678306,9.476943
1421632151177.00,-0.6499484,3.436853,9.209898
1421632151197.00,-0.592917,3.2751892,9.286538
1421632151217.00,-0.6038443,3.4578094,9.377998
1421632151237.00,-0.6777905,3.4024246,9.350156
1421632151257.00,-0.69485503,3.448379,9.330248
1421632151277.00,-0.6396199,3.4343083,9.171278
1421632151297.00,-0.66342044,3.5814524,9.390872
1421632151318.00,-0.6158194,3.5853443,9.441466
1421632151339.00,-0.6059399,3.4962795,9.615405
1421632151357.00,-0.6779402,3.3894017,9.409882
1421632151378.00,-0.6171666,3.4997222,9.306297
1421632151397.00,-0.63363236,3.49119,9.316476
1421632151417.00,-0.5315446,3.296445,9.326356
1421632151437.00,-0.6129753,3.397934,9.178912
1421632151457.00,-0.55010605,3.4539175,9.272767
1421632151477.00,-0.7009923,3.5088532,9.408984
1421632151497.00,-0.70802766,3.378175,9.41063
1421632151518.00,-0.608784,3.3838632,9.405541
1421632151539.00,-0.5230124,3.3971856,9.38683
1421632151559.00,-0.47930327,3.5067577,9.402996
1421632151579.00,-0.4261638,3.372936,9.308244
1421632151598.00,-0.51971924,3.4703834,9.421557
1421632151618.00,-0.6538403,3.4341586,9.459878
1421632151638.00,-0.5522017,3.4194891,9.381441
1421632151659.00,-0.4314029,3.4835558,9.400901
1421632151678.00,-0.4734654,3.4846036,9.420361
1421632151698.00,-0.5622308,3.4715807,9.403894
1421632151721.00,-0.6512956,3.4142501,9.395661
1421632151738.00,-0.7247928,3.51529,9.39626
1421632151758.00,-0.55399793,3.44314,9.388327
1421632151780.00,-0.52885026,3.4486785,9.216334
1421632151804.00,-0.6059399,3.3783247,9.2256155
1421632151823.00,-0.66282165,3.395988,9.362281
1421632151841.00,-0.6753955,3.323838,9.346414
1421632151858.00,-0.5243596,3.5006204,9.325607
1421632151877.00,-0.47226793,3.4408946,9.361532
1421632151897.00,-0.443378,3.6034565,9.355395
1421632151918.00,-0.5545967,3.4875975,9.285042
1421632151941.00,-0.41299117,3.6247125,9.274115
1421632151966.00,-0.45714936,3.5524127,9.398207
1421632151977.00,-0.6490503,3.643124,9.489217
1421632151998.00,-0.6471043,3.5170863,9.551638
1421632152017.00,-0.73586977,3.3659005,9.373208
1421632152037.00,-0.70428544,3.434458,9.399254
1421632152059.00,-0.59007293,3.3711398,9.34357
1421632152077.00,-0.53962785,3.4624498,9.298064
1421632152097.00,-0.43170226,3.380121,9.3083935
1421632152117.00,-0.5812413,3.4135015,9.316326
1421632152137.00,-0.47675857,3.5188825,9.445358
1421632152157.00,-0.50504977,3.416645,9.465267
1421632152177.00,-0.59441394,3.477718,9.39626
1421632152197.00,-0.67075515,3.5699263,9.472003
1421632152219.00,-0.5798941,3.552263,9.453442
1421632152240.00,-0.5644762,3.4578094,9.38698
1421632152257.00,-0.5090913,3.597469,9.365724
1421632152278.00,-0.56717056,3.4843044,9.471704
1421632152298.00,-0.583786,3.407514,9.380842
1421632152317.00,-0.43304947,3.5274148,9.270822
1421632152338.00,-0.5090913,3.5476227,9.259445
1421632152357.00,-0.4764592,3.3871565,9.3365345
1421632152377.00,-0.5863307,3.5350487,9.347162
1421632152398.00,-0.5625302,3.5673816,9.338631
1421632152418.00,-0.4285588,3.484005,9.2813
1421632152510.00,-0.49801436,3.5003211,9.296418
1421632152511.00,-0.45250902,3.534001,9.351503
1421632152513.00,-0.6186635,3.4328115,9.42066
1421632152515.00,-0.6236032,3.3965867,9.5109215
1421632152518.00,-0.57420594,3.3971856,9.459429
1421632152551.00,-0.59815615,3.3630564,9.478739
1421632152558.00,-0.62225604,3.4506245,9.400452
1421632152590.00,-0.631387,3.4203873,9.391022
1421632152651.00,-0.68976563,3.432512,9.383388
1421632152652.00,-0.68557435,3.497926,9.207503
1421632152653.00,-0.6638695,3.580704,9.250314
1421632152657.00,-0.6619235,3.6360886,9.283844
1421632152690.00,-0.45011398,3.4459841,9.331594
1421632152752.00,-0.46418473,3.5012193,9.375753
1421632152753.00,-0.5572911,3.5345998,9.4772415
1421632152754.00,-0.51433045,3.4247282,9.3289
1421632152758.00,-0.6379733,3.4986744,9.3944645
1421632152781.00,-0.66162413,3.3612602,9.306896
1421632152844.00,-0.5267546,3.4208364,9.298214
1421632152845.00,-0.61791503,3.4763708,9.291628
1421632152845.00,-0.53932846,3.557053,9.277408
1421632152874.00,-0.51268387,3.3914974,9.08386
1421632152933.00,-0.5188211,3.49598,9.089848
1421632152933.00,-0.52256334,3.4639466,9.160201
1421632152935.00,-0.41418868,3.4093103,9.156609
1421632152937.00,-0.22947282,3.5328035,9.180709
1421632152957.00,-0.2520758,3.291206,8.985065
1421632153013.00,-0.24653733,3.1192136,9.260642
1421632153013.00,-0.27393037,3.1912138,9.43009
1421632153063.00,-0.10523117,3.2443533,9.3172245
1421632153064.00,-0.08966354,3.626808,9.358389
1421632153065.00,-0.021854553,3.4407449,9.04075
1421632153115.00,-0.032931518,3.530259,9.14643
1421632153116.00,-0.35356477,3.8347256,9.686657
1421632153117.00,-0.28994706,3.6500099,9.860894
1421632153137.00,0.05598358,3.4254768,9.592203
1421632153160.00,-0.31674135,3.4549654,9.67079
1421632153177.00,-0.1552272,3.5754647,8.309371
1421632153196.00,-0.60983187,4.038452,8.464598
1421632153257.00,0.041314088,3.8694534,9.650731
1421632153258.00,-0.11121872,3.7712576,9.235495
1421632153259.00,-0.6119275,3.7001555,8.507409
1421632153282.00,-1.7901274,7.6549315,9.065
1421632153300.00,0.011226654,3.4850528,9.971364
1421632153317.00,-0.19324814,2.8018734,9.750125
1421632153341.00,-0.4736151,4.9922686,9.798624
1421632153363.00,-0.14938934,2.9244685,8.860824
1421632153377.00,0.04430786,2.8451335,9.830507
1421632153397.00,0.27677444,3.258424,9.60328
1421632153417.00,0.6518944,2.085014,9.735455
1421632153437.00,0.19594254,3.1111305,8.760383
1421632153457.00,0.28515702,3.3087194,7.6131682
1421632153477.00,5.99E-04,3.4528697,8.934471
1421632153530.00,-0.2776726,4.3724074,9.293425
1421632153531.00,-0.57225996,3.3070729,9.543554
1421632153552.00,0.27572662,3.6149826,9.741892
1421632153557.00,-0.30716124,3.5637891,10.399025
1421632153578.00,-0.034578096,3.3129108,9.685309
1421632153597.00,-0.12888199,2.8809092,11.652818
1421632153617.00,0.026345216,2.9719198,12.295581
1421632153638.00,0.46134064,2.133214,9.720037
1421632153657.00,0.37107834,2.7702892,8.463849
1421632153681.00,0.29668304,3.1880703,9.98768
1421632153697.00,1.267564,3.2280374,9.817783
1421632153718.00,0.79544586,3.212769,9.648336
1421632153737.00,0.8596623,2.8839028,9.609267
1421632153757.00,1.3389657,2.7292745,8.7279005
1421632153777.00,1.4617103,2.8075616,8.706046
1421632153797.00,1.3781841,2.977608,9.270522
1421632153818.00,0.98510146,3.554658,8.5413885
1421632153882.00,1.0047107,4.142785,9.102272
1421632153882.00,1.1030562,3.7574863,8.975784
1421632153883.00,1.0865904,3.6616855,8.464448
1421632153906.00,1.0145901,3.8137693,10.11312
1421632153917.00,1.2799883,3.233426,9.94951
1421632154022.00,1.1436218,3.2726445,9.030721
1421632154024.00,1.5096108,3.2292347,8.917256
1421632154025.00,1.6521144,3.0639784,8.545429
1421632154025.00,1.4958394,3.115172,8.726553
1421632154027.00,1.5540683,3.4937348,8.988808
1421632154037.00,1.5495776,3.6416273,8.793913
1421632154072.00,1.5822098,3.7327876,8.286618
1421632154148.00,1.5626006,3.704646,8.101752
1421632154149.00,1.437311,2.938689,7.9981675
1421632154150.00,1.1585907,3.4744248,9.156459
1421632154152.00,0.87178713,3.4148488,10.435101
1421632154216.00,1.088237,2.6671536,10.534943
1421632154217.00,1.0053095,3.2852182,9.404793
1421632154218.00,0.5502557,2.2670357,8.80005
1421632154219.00,0.72299653,3.8585262,9.445508
1421632154255.00,1.7218693,3.083438,10.0135765
1421632154259.00,1.9499949,2.805017,9.1676855
1421632154278.00,1.3727952,3.3069232,9.198971
1421632154297.00,0.9806108,2.7809172,9.20885
1421632154317.00,1.2087364,2.492467,9.291179
1421632154337.00,1.5531702,3.3600626,8.800798
1421632154357.00,0.87208647,3.8573287,8.373736
1421632154377.00,0.38050872,3.2256422,7.650291
1421632154400.00,0.6328839,3.062332,7.36708
1421632154433.00,1.0948234,3.680696,7.8543167
1421632154437.00,1.4202466,3.6742594,8.700807
1421632154457.00,1.6019686,2.7099645,8.905131
1421632154476.00,1.0347981,5.6482043,11.561209
1421632154497.00,1.5920892,5.071604,6.2276497
1421632154518.00,1.7817448,5.424869,6.3268933
1421632154537.00,1.7315991,4.514462,9.513467
1421632154557.00,2.2519171,4.1272173,9.421108
1421632154578.00,0.76386154,4.358187,8.187374
1421632154666.00,1.9896625,3.3259337,7.6068816
1421632154666.00,2.4728577,2.0350182,6.807993
1421632154669.00,2.4301963,2.9012668,7.6730437
1421632154673.00,3.217559,1.9290385,11.778706
1421632154692.00,3.5471735,0.68422717,9.8447275
1421632154697.00,4.313131,0.60429335,9.224418
1421632154717.00,4.3619294,0.5863307,7.5871224
1421632154737.00,3.838019,0.7500902,5.9806633
1421632154757.00,2.587669,0.7399113,5.3016753
1421632154782.00,2.0041823,1.1150312,6.1896286
1421632154800.00,3.350782,1.2091855,5.700895
1421632154877.00,4.535718,1.3632152,4.750521
1421632154878.00,4.6604085,0.7316785,5.9689875
1421632154879.00,3.0533504,0.120050356,6.779103
1421632154880.00,3.1031969,-0.160616,6.999145
1421632154900.00,4.235442,-0.022902375,6.930438
1421632154917.00,4.878206,-0.6490503,7.354506
1421632154937.00,4.3348355,-0.8427475,8.497679
1421632154958.00,5.2650013,-1.2389735,8.334518
1421632154991.00,7.1340146,-1.5872992,7.6005945
1421632154997.00,8.428673,-2.296674,7.2744226
1421632155017.00,8.32419,-2.6667047,7.2763686
1421632155037.00,10.102192,-2.5138724,7.492968
1421632155057.00,12.729678,-2.1637504,6.8296976
1421632155077.00,14.235697,-2.5649161,6.813082
1421632155097.00,12.923974,-2.6728418,6.654113
1421632155125.00,11.978091,-3.1025982,5.980214
1421632155157.00,12.353211,-2.6426046,5.3552637
1421632155159.00,12.138408,-2.8533664,4.2059536
1421632155328.00,11.4062805,-3.117567,3.0955627
1421632155329.00,11.535611,-3.0659244,3.14975
1421632155330.00,11.8653755,-2.42361,2.874622
1421632155331.00,11.914324,-2.5649161,-0.78227323
1421632155335.00,10.581795,-3.4983752,-1.7218693
1421632155340.00,9.279503,-4.6623545,-0.735271
1421632155341.00,8.327483,-4.695436,0.6673123
1421632155342.00,7.9713736,-3.9502854,0.89364165
1421632155343.00,7.7145076,-3.3925452,1.1056008
1421632155392.00,7.470814,-3.7841308,1.0786569
1421632155404.00,6.957532,-4.199068,0.5321434
1421632155405.00,7.444469,-5.050348,2.0402572
1421632155421.00,10.433753,-5.6299424,2.038461
1421632155450.00,10.890304,-4.50578,-2.257755
1421632155458.00,7.978858,-3.674409,-4.718338
1421632155484.00,4.964726,-4.312981,-2.6542804
1421632155581.00,5.3096085,-4.669839,0.05373825
1421632155584.00,8.022118,-4.4550357,0.4327501
1421632155604.00,9.626482,-5.202282,-1.063239
1421632155609.00,6.92954,-2.6625133,-3.1639705
1421632155612.00,4.0565643,-4.2363405,-4.2028103
1421632155613.00,8.733738,-7.8589573,0.9713301
1421632155623.00,15.902929,-8.950337,6.090984
1421632155659.00,14.754368,-7.22757,1.0000703
1421632155660.00,15.86431,-7.2970257,0.15867004
1421632155697.00,8.821306,-8.807834,-0.7316785
1421632155716.00,5.602849,-9.125623,-1.144969
1421632155717.00,5.489834,-10.5315,1.6146922
1421632155737.00,6.3230014,-5.7886124,5.444927
1421632155757.00,5.808222,-2.8604019,3.4443374
1421632155783.00,4.619244,-0.49038026,-3.1052926
1421632155803.00,6.345305,0.104482725,-2.8440857
1421632155817.00,6.275999,-1.3292358,-2.0969894
1421632155885.00,5.0284934,-0.8472382,-1.7729132
1421632155886.00,4.505331,-0.26524842,-1.319506
1421632155887.00,7.065158,-1.2680131,-1.8212627
1421632155897.00,8.4343605,-4.4435096,-4.7955775
1421632155922.00,9.465417,-6.1641817,-5.5241127
1421632155937.00,11.515703,-9.14658,4.073479
1421632155957.00,10.98835,-8.389604,1.4723382
1421632155977.00,10.899136,-10.859917,2.301015
1421632155997.00,10.14695,-13.157788,1.9209553
1421632156017.00,10.561737,-10.496622,2.9801528
1421632156037.00,9.373358,-8.408315,3.2931519
1421632156058.00,7.0009413,-6.555767,3.3688943
1421632156077.00,3.721561,-3.4109569,4.533323
1421632156153.00,3.8483474,-3.4245787,3.7206628
1421632156153.00,3.9998324,1.3463004,3.3509316
1421632156155.00,5.5236635,2.5122259,-4.7883925
1421632156160.00,8.065378,1.0018666,-3.5763628
1421632156177.00,7.6472974,-0.30117372,-0.82717985
1421632156197.00,6.71803,-0.20462447,-0.32841706
1421632156218.00,8.368049,-0.9431886,0.445773
1421632156237.00,9.65627,-1.934577,-0.13995895
1421632156257.00,9.510324,-1.8041981,-1.9374211
1421632156277.00,8.746612,-3.4923875,-1.8401234
1421632156297.00,10.673105,-5.44373,0.086071014
1421632156317.00,5.0311875,-4.7051654,-2.4682174
1421632156337.00,6.6671357,-10.216704,4.8879356
1421632156357.00,4.7327085,-8.091723,3.404071
1421632156377.00,4.5458965,-4.171226,-0.46687913
1421632156397.00,6.7948203,-8.161179,-2.9068053
1421632156417.00,5.999823,-8.748108,-2.3903792
1421632156437.00,6.320157,-11.451786,-2.0707939
1421632156500.00,6.8442173,-13.809982,-1.8146764
1421632156501.00,6.7114434,-10.424172,-0.3240761
1421632156502.00,6.409521,-3.7145257,-1.5805632
1421632156538.00,6.060447,-6.2517495,0.5457651
1421632156545.00,7.766599,-7.1010833,-0.4975653
1421632156557.00,6.2725563,-6.2084894,-1.0979668
1421632156577.00,4.086053,-6.5720835,-2.6232948
1421632156597.00,4.729864,-7.2989717,0.17004639
1421632156617.00,2.5141718,-8.2953,-0.78691363
1421632156637.00,2.2469773,-10.331366,-0.5664221
1421632156657.00,2.4215145,-10.971285,0.22198838
1421632156677.00,1.0300081,4.0887475,3.0323942
1421632156697.00,3.6780016,-0.6018984,-4.170028
1421632156718.00,5.1433043,3.343148,-0.43454635
1421632156737.00,0.941542,-1.0931767,0.5760022
1421632156757.00,0.03996689,-8.22779,1.5524217
1421632156812.00,-0.63108766,-12.867093,-5.1748886
1421632156814.00,-2.3348446,-12.800481,-0.8449928
1421632156818.00,-2.3296056,-6.2402234,1.7991087
1421632156838.00,-2.1775217,-4.3995013,0.2363585
1421632156857.00,-2.124532,-6.8514023,0.32078293
1421632156878.00,-1.4121634,-5.523963,1.063239
1421632156897.00,-1.0376422,-4.1579037,0.40909928
1421632156918.00,-1.2519965,-3.8531373,0.08038285
1421632156944.00,-14.008619,-16.076717,6.5216384
1421632156959.00,-3.1240036,-16.947008,2.3400838
1421632156978.00,1.2716057,-10.019415,-5.8725877
1421632156997.00,-2.020648,-11.505225,-2.3393354
1421632157017.00,-5.5432725,-13.092374,0.22109024
1421632157037.00,-4.9942145,-8.219258,-0.054037627
1421632157061.00,-3.8486466,-5.7166123,-0.29503646
1421632157078.00,-3.955225,-8.470137,0.89259386
1421632157130.00,-3.2874637,-8.618927,1.906735
1421632157132.00,-3.621569,-9.138946,1.1076965
1421632157145.00,-3.9847138,-9.570648,-0.070503384
1421632157157.00,-4.537514,-9.161998,-0.74634796
1421632157177.00,-4.6508284,-8.703201,-0.46403503
1421632157197.00,-4.763095,-8.792267,0.11496094
1421632157217.00,-4.561614,-8.867709,0.65638506
1421632157237.00,-4.3626776,-8.762628,0.74485105
1421632157257.00,-4.280349,-8.788375,0.41478744
1421632157277.00,-4.075425,-8.821456,0.1419049
1421632157297.00,-4.056265,-8.967852,0.30581406
1421632157317.00,-4.0785685,-8.898396,0.4816983
1421632157337.00,-4.0689883,-8.822503,0.36823425
1421632157357.00,-4.028273,-8.845106,0.305365
1421632157377.00,-4.271068,-8.896151,0.40790176
1421632157439.00,-4.107908,-8.84825,0.5706134
1421632157440.00,-3.9353166,-8.857381,0.529449
1421632157441.00,-3.8779857,-8.916208,0.5860313
1421632157462.00,-3.9431002,-8.889863,0.6601273
1421632157478.00,-4.1107516,-8.815468,0.6453081
1421632157497.00,-3.9700441,-8.871152,0.5071454
1421632157517.00,-4.0520735,-8.844956,0.5484595
1421632157538.00,-3.950435,-8.860225,0.65608567
1421632157557.00,-3.9987845,-8.890312,0.7149133
1421632157577.00,-3.9983354,-8.89136,0.5689668
1421632157597.00,-4.2954674,-8.898096,0.714614
1421632157617.00,-4.3348355,-8.803044,0.6161188
1421632157637.00,-4.1987686,-8.901239,0.39907014
1421632157658.00,-4.047134,-8.798104,0.40655458
1421632157677.00,-4.1344023,-8.786728,0.8143066
1421632157698.00,-4.2757087,-9.016051,1.0783576
1421632157720.00,-4.4105783,-8.704998,0.5483098
1421632157795.00,-4.388873,-8.894204,0.7629634
1421632157796.00,-4.474196,-8.648266,0.27408004
1421632157797.00,-4.397705,-8.731044,0.37227586
1421632157798.00,-4.432882,-8.756191,0.6456075
1421632157819.00,-4.752617,-8.86277,0.78721297
1421632157837.00,-4.473148,-8.680598,0.5144801
1421632157858.00,-4.2550516,-8.905131,0.5230124
1421632157877.00,-3.9501357,-8.69886,0.5851332
1421632157897.00,-3.7636235,-8.841813,0.75398207
1421632157917.00,-4.142336,-9.018446,0.6249504
1421632157938.00,-4.3912683,-8.8722,0.64381117
1421632157957.00,-4.534221,-8.778794,0.39981857
1421632157977.00,-3.830684,-8.887169,-0.052840117
1421632157997.00,-3.9022353,-8.967852,0.0782872
1421632158018.00,-4.197272,-8.83358,0.7298822
1421632158040.00,-4.348158,-8.805888,0.37571868
1421632158060.00,-4.2980123,-8.7157755,0.29668304
1421632158113.00,-3.949986,-9.020841,0.17558487
1421632158115.00,-3.8609211,-8.97324,0.4978647
1421632158121.00,-3.8847218,-8.873697,0.23561005
1421632158138.00,-3.979774,-9.028774,0.44143203
1421632158157.00,-4.214037,-8.883277,0.53828067
1421632158177.00,-4.048481,-8.889115,0.48903304
1421632158197.00,-3.958668,-8.933573,0.3995192
1421632158220.00,-4.153862,-8.955128,0.6171666
1421632158242.00,-4.158353,-8.833431,0.47451323
1421632158257.00,-4.2378373,-8.87205,0.4017645
1421632158277.00,-4.28948,-8.9924,0.36838394
1421632158298.00,-4.1483235,-8.974438,0.41463774
1421632158319.00,-3.8763392,-8.898096,0.63213545
1421632158337.00,-3.9902523,-9.025481,0.5426216
1421632158362.00,-3.974535,-8.860674,0.5236111
1421632158377.00,-3.9895039,-8.986712,0.41329056
1421632158459.00,-3.953878,-9.035511,0.33979338
1421632158460.00,-4.033662,-9.104966,0.4646338
1421632158461.00,-4.0733294,-9.044492,0.54097503
1421632158463.00,-4.161496,-8.764125,0.6200107
1421632158482.00,-4.112997,-8.835077,0.5876779
1421632158498.00,-3.989803,-9.006471,0.5258565
1421632158519.00,-4.119583,-8.861273,0.4340973
1421632158537.00,-4.0035744,-8.83373,0.69036436
1421632158557.00,-4.135001,-8.878487,0.710722
1421632158577.00,-4.10656,-8.854537,0.80622345
1421632158598.00,-4.1167393,-8.70395,0.7424561
1421632158617.00,-4.191883,-8.757539,0.6008505
1421632158637.00,-4.0848556,-8.919502,0.74110883
1421632158657.00,-4.086502,-8.996292,0.7677534
1421632158680.00,-3.916306,-8.962313,0.65458876
1421632158754.00,-3.8764887,-9.034912,0.5638774
1421632158756.00,-4.11629,-8.839718,0.72673875
1421632158757.00,-4.188141,-8.726403,0.75996965
1421632158758.00,-3.9029837,-8.7999,0.62330383
1421632158777.00,-3.7523968,-8.96396,0.5147795
1421632158798.00,-3.6705172,-9.019344,0.57959473
1421632158818.00,-3.8049376,-9.084908,0.72389466
1421632158841.00,-3.9883063,-9.005573,0.583786
1421632158857.00,-4.02513,-8.964409,0.44756928
1421632158877.00,-3.9339693,-8.9320755,0.50130755
1421632158897.00,-3.8549337,-8.95408,0.40131545
1421632158917.00,-3.7022512,-9.119486,0.24219635
1421632158937.00,-3.6491117,-9.062005,0.26569748
1421632158957.00,-3.6251614,-9.051527,0.41089553
1421632158977.00,-3.8794825,-9.070388,0.4204756
1421632158999.00,-3.984115,-9.138946,0.050744478
1421632159017.00,-3.9544766,-9.073681,-0.065114595
1421632159038.00,-3.883674,-9.132809,-0.08038285
1421632159091.00,-3.82305,-9.154813,-0.3293152
1421632159092.00,-3.7031493,-9.106912,-0.47496232
1421632159097.00,-3.562292,-9.273516,-0.92462724
1421632159117.00,-3.758085,-9.506132,-1.6971707
1421632159137.00,-4.2804985,-9.91568,-2.5860224
1421632159157.00,-4.6711864,-10.272838,-3.699856
1421632159177.00,-4.37121,-10.954221,-4.6990285
1421632159197.00,-4.184249,-11.619437,-4.1353006
1421632159217.00,-4.4349775,-11.9288435,-2.8201356
1421632159237.00,-4.1589513,-11.68994,-2.0049307
1421632159257.00,-3.2859669,-10.828931,-0.41448808
1421632159277.00,-4.025728,-9.110504,1.6022681
1421632159298.00,-5.5559964,-6.676716,1.470991
1421632159319.00,-4.7605505,-6.050119,-1.640738
1421632159340.00,-3.595074,-7.084917,-3.3560212
1421632159414.00,-3.150349,-7.644453,-2.454895
1421632159417.00,-2.848726,-7.6161623,-1.9877166
1421632159418.00,-2.4566913,-7.367978,-2.0546274
1421632159419.00,-2.095193,-7.351662,-2.153871
1421632159438.00,-2.2294638,-7.5333843,-2.1559668
1421632159457.00,-2.3695724,-7.619755,-2.2517674
1421632159478.00,-2.6101222,-7.406897,-3.0174253
1421632159497.00,-3.014132,-7.057973,-4.15012
1421632159517.00,-3.409909,-6.6744704,-5.392686
1421632159541.00,-3.4741256,-6.214926,-6.5897465
1421632159558.00,-2.805466,-6.552923,-6.587501
1421632159577.00,-1.8959574,-6.7542543,-5.129982
1421632159597.00,-1.2280463,-6.4875093,-3.9851627
1421632159617.00,-0.49711624,-6.010751,-3.8487964
1421632159637.00,-0.48633865,-5.07819,-4.126619
1421632159657.00,-3.1033466,-5.8332195,-4.036506
1421632159678.00,-6.061495,-12.452006,-5.5139337
1421632159697.00,-4.5897555,-18.506914,-11.600576
1421632159751.00,-3.6751575,-9.79084,0.84768724
1421632159752.00,-7.709568,-1.545536,3.5202296
1421632159757.00,-9.894275,0.04101471,-0.034278717
1421632159777.00,-6.195317,-3.6925213,-1.4488372
1421632159797.00,-3.4557137,-11.100916,0.6304889
1421632159817.00,-2.4786956,-15.812518,1.9661614
1421632159838.00,-0.60264677,-13.771063,1.5959811
1421632159857.00,-2.26015,-10.063573,1.0120454
1421632159877.00,-3.9550753,-8.933124,0.73497164
1421632159898.00,-3.9616616,-9.050031,1.9101777
1421632159917.00,-2.4032524,-10.428514,4.73196
1421632159937.00,-0.97118044,-13.52243,3.9796243
1421632159958.00,-0.78212357,-14.593003,0.8966354
1421632159977.00,-0.085771635,-13.079501,-0.89513856
1421632159997.00,0.61222684,-13.063035,-0.76925033
1421632160017.00,-1.019979,-14.056819,-1.665287
1421632160095.00,-0.1830693,-13.657748,-2.501598
1421632160096.00,-0.3622467,-11.091485,-5.568121
1421632160097.00,-1.2084371,-10.585836,-8.399184
1421632160100.00,-0.8681946,-9.158106,-8.649164
1421632160118.00,-0.7845186,-8.176597,-10.66098
1421632160137.00,-0.4896318,-8.09292,-9.989178
1421632160158.00,-1.161285,-6.227949,-5.123246
1421632160178.00,-1.0129436,-4.438121,1.5220349
1421632160197.00,-1.9038908,-8.403674,5.610782
1421632160218.00,-4.9249086,-12.147539,5.8978853
1421632160238.00,-10.989846,-17.794994,-1.5064673
1421632160257.00,-11.167976,-18.291513,-6.3532386
1421632160277.00,-9.332942,-19.338585,-7.633975
1421632160297.00,-8.640332,-19.54261,4.853956
1421632160317.00,-4.5436516,-17.47107,4.149072
1421632160337.00,0.013172608,-13.625715,1.7732126
1421632160418.00,0.57390654,-9.547746,1.4891034
1421632160419.00,0.068108365,-6.259234,2.4327412
1421632160420.00,-2.0851638,-2.5036936,2.2016218
1421632160421.00,-5.033433,-0.3686833,1.5952327
1421632160437.00,-6.667585,2.1983285,0.800685
1421632160457.00,-7.692653,5.4775596,0.71596116
1421632160478.00,-7.4167767,5.6112313,-0.39697447
1421632160497.00,-2.759362,1.0837463,-2.3730154
1421632160518.00,3.196004,-6.627468,-12.568165
1421632160540.00,1.5869998,-16.222366,-16.659157
1421632160557.00,0.78885955,-9.109457,-5.059778
1421632160577.00,-2.7032287,-3.8014948,14.284495
1421632160597.00,-13.9218,-16.607065,15.563286
1421632160617.00,-6.363567,-14.6281805,-2.156266
1421632160640.00,-5.700895,-4.1378455,0.36748582
1421632160661.00,-8.952134,-6.4102697,7.2590046
1421632160752.00,-10.788365,-12.52206,11.611953
1421632160753.00,-8.78568,-18.002014,5.312902
1421632160754.00,0.91804093,-19.140697,-5.202282
1421632160760.00,5.021757,-17.651743,0.3332071
1421632160764.00,2.9879365,-17.894089,0.30671218
1421632160777.00,-0.5096901,-17.902622,-2.730921
1421632160799.00,-0.99183744,-13.537548,-8.653056
1421632160821.00,-0.4046086,-10.3005295,-11.721076
1421632160840.00,-1.567241,-9.251212,-9.3188715
1421632160862.00,-1.8353333,-6.0602975,-6.554869
1421632160881.00,0.92657316,-4.0025268,-7.5999956
1421632160899.00,4.4671607,-2.2698798,-2.3022125
1421632160917.00,3.2576756,-1.5687377,-0.08786728
1421632160937.00,-0.916544,-1.8859282,1.9645147
1421632160957.00,-3.2428565,-3.4295182,1.5536193
1421632160977.00,-1.8723065,-15.058386,-1.5049704
1421632161038.00,-7.9544587,-18.96601,-5.7193065
1421632161039.00,-12.128529,-17.417929,-1.9464024
1421632161040.00,-11.366613,-16.581768,-1.7934206
1421632161062.00,-6.20819,-19.163,1.8577867
1421632161077.00,-3.9535785,-18.160835,2.76026
1421632161099.00,-0.56597304,-14.418616,1.3150154
1421632161117.00,-0.4564009,-8.343201,2.1417463
1421632161139.00,-2.0378623,-5.4072056,2.9455748
1421632161160.00,-4.0176454,-0.9213341,2.5776398
1421632161180.00,-5.9718313,2.5315356,0.9672885
1421632161198.00,-6.793024,5.1943483,0.14040802
1421632161217.00,-6.73704,5.946534,0.61087966
1421632161238.00,-6.3700037,2.7153535,-0.36793488
1421632161258.00,-0.6024971,-3.8029916,-5.4778585
1421632161277.00,3.0551467,-16.501984,-12.360546
1421632161297.00,1.0192305,-17.543966,-14.412479
1421632161370.00,0.59950334,-2.6180558,-1.3025912
1421632161371.00,-5.4313054,-3.282973,12.032728
1421632161372.00,-15.776592,-15.881225,11.93992
1421632161377.00,-9.270372,-6.8075438,8.950637
1421632161397.00,-8.0387335,-7.1144056,5.488487
1421632161417.00,-8.962163,-13.598472,10.362651
1421632161437.00,-6.7560506,-18.577868,-1.1105406
1421632161457.00,-2.740651,-17.613573,-8.912167
1421632161478.00,0.001496887,-15.650704,4.2098455
1421632161497.00,1.1972104,-16.252304,1.4647042
1421632161517.00,0.77299255,-18.212927,-5.863756
1421632161540.00,1.3971945,-16.597784,-8.784034
1421632161557.00,2.0874093,-13.054354,-10.206974
1421632161577.00,-0.24219635,-9.650432,-7.6645117
1421632161598.00,-0.4564009,-5.2897,-8.512797
1421632161617.00,1.8312918,-2.7364595,-7.6136174
1421632161637.00,1.4894028,-2.26973,-1.0352472
1421632161657.00,-0.74395293,-1.1222163,1.963467
1421632161677.00,-2.066303,-1.0187814,1.0139914
1421632161751.00,-2.3436763,-9.451795,-2.1436923
1421632161752.00,-2.5454566,-18.11563,-1.9261944
1421632161753.00,-11.441757,-19.291582,-4.2854385
1421632161763.00,-10.158027,-15.132482,-0.7472461
1421632161777.00,-7.081474,-18.878292,0.010478211
1421632161797.00,-6.0046134,-17.814604,4.6253815
1421632161817.00,-1.1316468,-14.026582,4.487219
1421632161837.00,1.1189232,-8.206085,2.2959256
1421632161857.00,-0.25102797,-4.7153444,3.5119967
1421632161877.00,-3.4534686,-0.90052736,3.206033
1421632161897.00,-6.0011706,3.0587394,2.1754262
1421632161917.00,-6.072572,6.3444066,1.0939251
1421632161937.00,-5.892796,6.221213,0.19579285
1421632161960.00,-3.8046381,0.6619235,-1.4567707
1421632162037.00,2.848726,-7.906558,-13.226047
1421632162038.00,2.3090982,-17.82119,-15.107035
1421632162040.00,0.034278717,-13.143418,-13.2740965
1421632162040.00,-2.9437783,2.0592678,11.112442
1421632162062.00,-8.629255,-5.6029987,11.832444
1421632162077.00,-17.072746,-17.430353,13.508958
1421632162097.00,-6.0565553,-9.7674885,0.8339159
1421632162117.00,-6.1164308,-8.71847,1.7229172
1421632162137.00,-6.8199677,-12.435241,9.435629
1421632162157.00,-6.4098206,-17.477655,4.778064
1421632162178.00,-2.5161178,-19.219732,-1.7712666
1421632162197.00,2.1941373,-17.843195,-0.7881111
1421632162217.00,3.3667986,-18.433718,-0.6499484
1421632162237.00,2.1257296,-18.696869,-7.1126094
1421632162257.00,1.5108082,-14.120586,-9.668993
1421632162280.00,0.28171417,-10.962005,-9.613758
1421632162297.00,-1.0666819,-7.4832387,-6.0589504
1421632162352.00,0.009729767,-3.8974452,-8.412207
1421632162353.00,3.8737943,-2.655478,-5.3075128
1421632162364.00,4.238436,-1.4382092,1.3425581
1421632162377.00,0.7298822,-1.0009685,0.8044272
1421632162398.00,-1.6155903,-1.214724,-1.7082477
1421632162417.00,-2.4560926,-6.4723907,-2.052382
1421632162438.00,-1.033451,-15.454612,-0.78691363
1421632162458.00,-9.111852,-19.019897,-6.0050626
1421632162481.00,-12.080778,-17.45041,-2.3804998
1421632162503.00,-9.320817,-18.563198,-1.6833993
1421632162518.00,-5.0033455,-18.810633,3.6206708
1421632162537.00,-1.5804135,-16.021334,4.897516
1421632162557.00,0.33515304,-10.846745,2.0648062
1421632162578.00,-0.6819818,-6.692283,3.2525861
1421632162598.00,-3.123854,-2.4260051,2.5647666
1421632162617.00,-6.130352,2.4614813,1.608555
1421632162684.00,-7.24209,5.538782,0.78601545
1421632162686.00,-6.3358746,6.332282,0.8214917
1421632162686.00,-4.641099,3.0446687,0.010029145
1421632162697.00,3.3172517,-3.967799,-9.836346
1421632162717.00,5.438341,-17.271982,-17.817299
1421632162738.00,2.5505462,-12.832066,-10.916499
1421632162758.00,-3.2385154,3.4784665,11.119477
1421632162778.00,-10.221195,-5.9353075,12.289444
1421632162798.00,-16.757952,-17.724941,11.37275
1421632162817.00,-5.168003,-7.1986804,-0.034278717
1421632162837.00,-5.5645285,-9.010063,3.7226088
1421632162857.00,-6.830745,-16.035553,10.812166
1421632162877.00,-4.156407,-18.964064,-2.7960355
1421632162897.00,3.0900242,-18.958225,-2.0950434
1421632162917.00,4.617897,-17.703535,-0.866548
1421632162937.00,1.7720151,-18.876795,-7.964787
1421632162957.00,1.4498849,-16.089891,-10.011631
1421632162977.00,0.060623933,-11.991714,-9.92062
1421632163036.00,-1.1987072,-7.5934095,-5.0181646
1421632163037.00,0.7247928,-3.4914894,-8.958421
1421632163038.00,3.7824843,-2.3430777,-6.187383
1421632163059.00,2.097588,-1.499881,0.12753479
1421632163077.00,-0.92028624,-0.52885026,0.7747888
1421632163098.00,-1.4019846,-1.7353413,0.52226394
1421632163117.00,-0.88451064,-10.596314,-0.97462326
1421632163137.00,-0.35116974,-18.353483,-1.5690372
1421632163158.00,-9.274115,-19.368973,-5.7857685
1421632163177.00,-10.766361,-17.054035,-2.9786558
1421632163197.00,-7.2212834,-19.133062,-3.1585817
1421632163218.00,-4.3400745,-19.035465,6.71803
1421632163237.00,-0.34338593,-15.108831,4.887636
1421632163257.00,1.488804,-8.991502,2.6708958
1421632163280.00,-0.92043597,-5.5281544,4.2170305
1421632163355.00,-3.7094362,-1.126707,3.5762131
1421632163357.00,-6.206843,2.9870384,2.223177
1421632163358.00,-7.3265142,6.4420037,1.4745836
1421632163359.00,-6.5379543,5.8932447,1.2618759
1421632163378.00,-4.6375065,2.8614495,-1.4488372
1421632163398.00,2.7303224,-5.234914,-11.178155
1421632163417.00,3.2576756,-17.397123,-17.578396
1421632163438.00,2.5750952,-15.026503,-11.871663
1421632163458.00,-3.851341,-0.97656924,12.992831
1421632163478.00,-13.761333,-13.835279,13.103003
1421632163497.00,-11.254646,-14.6563225,9.183253
1421632163518.00,-7.0004926,-4.787195,3.1428645
1421632163537.00,-10.076446,-10.632839,7.8342586
1421632163557.00,-9.741742,-15.683636,9.833351
1421632163577.00,-6.1444225,-19.051033,-1.0288106
1421632163598.00,2.6929002,-18.629509,-7.460935
1421632163660.00,5.1756372,-18.43671,-2.367926
1421632163661.00,4.7425876,-18.878143,-5.209317
1421632163662.00,4.0014787,-14.116395,-11.36811
1421632163677.00,1.7820442,-11.747272,-8.147408
1421632163698.00,0.3851491,-7.9137435,-8.00206
1421632163718.00,2.816094,-4.453389,-10.013277
1421632163737.00,4.0637493,-2.6470954,-3.5182836
1421632163761.00,0.7575746,-1.6631913,1.1485616
1421632163778.00,-1.0590477,0.41987687,-1.1633807
1421632163798.00,-1.5593075,-1.8606308,-0.9786649
1421632163817.00,-0.4629872,-10.42567,-1.8570383
1421632163837.00,1.4789245,-18.268461,-2.5849745
1421632163857.00,-7.125333,-19.402653,-5.59252
1421632163877.00,-8.104896,-17.63348,-2.717
1421632163897.00,-4.8359933,-19.316282,6.004314
1421632163917.00,-1.4557228,-18.87455,6.1126885
1421632163997.00,1.0642868,-12.910053,2.4724085
1421632163998.00,0.9105565,-8.200697,2.7232869
1421632163999.00,-1.7088464,-4.399052,2.689158
1421632164000.00,-5.8184004,0.06870712,1.8655705
1421632164017.00,-7.815847,3.1985486,0.89992857
1421632164037.00,-7.8040214,5.4304075,0.3941304
1421632164057.00,-6.7124915,4.748575,-0.29608428
1421632164078.00,-3.907624,1.6227754,-2.1912932
1421632164097.00,4.884343,-8.416997,-12.639865
1421632164117.00,6.388565,-18.035545,-18.464104
1421632164138.00,0.97088104,-9.825567,3.8136196
1421632164160.00,-8.950637,-12.3035145,12.178525
1421632164178.00,-10.753637,-16.36412,12.557087
1421632164197.00,-7.5552387,-4.5140133,4.684658
1421632164218.00,-9.571096,-4.096681,3.4852026
1421632164238.00,-10.028396,-11.141781,10.130633
1421632164304.00,-8.592582,-17.534536,10.111323
1421632164305.00,-2.0648062,-18.565443,-5.4429812
1421632164307.00,4.753066,-16.197367,-5.229525
1421632164317.00,4.6033773,-16.562609,-0.64156586
1421632164337.00,3.187771,-17.06167,-3.653752
1421632164358.00,3.859125,-14.500945,-9.755962
1421632164377.00,4.4493475,-12.328214,-9.07907
1421632164398.00,1.9541862,-9.5809765,-8.432265
1421632164418.00,3.3889527,-6.098169,-10.908266
1421632164440.00,4.119733,-3.8896613,-5.1443524
1421632164458.00,0.17573456,-3.2841706,3.079097
1421632164477.00,-1.3024416,-1.8107845,1.5932868
1421632164497.00,-1.7859361,-7.575896,-3.011737
1421632164517.00,-2.5158184,-15.708783,-2.9856913
1421632164537.00,-10.038724,-19.054476,-4.98673
1421632164558.00,-8.949141,-15.688875,-3.6347415
1421632164620.00,-5.358407,-19.048338,-1.6492703
1421632164621.00,-2.6927505,-19.312988,8.55965
1421632164622.00,1.6892372,-15.857425,2.983446
1421632164637.00,2.6680517,-8.284223,0.9128018
1421632164657.00,-1.4340179,-3.658542,3.7404218
1421632164677.00,-6.2971053,0.45250902,4.551136
1421632164697.00,-7.9999638,5.341642,3.4910402
1421632164718.00,-8.114027,9.004375,2.2561083
1421632164739.00,-5.8098683,7.9564047,0.44771898
1421632164758.00,-1.5569124,2.2487736,-2.975213
1421632164777.00,6.0463767,-10.398127,-14.942976
1421632164798.00,7.0388126,-18.151403,-18.91811
1421632164817.00,-4.269272,-10.739866,10.659184
1421632164838.00,-11.723321,-16.26862,15.036831
1421632164857.00,-7.7833643,-13.917608,8.270152
1421632164877.00,-7.9881387,-2.7710376,2.9148884
1421632164953.00,-11.291619,-5.123396,3.540288
1421632164954.00,-12.665911,-13.86357,14.654376
1421632164955.00,-9.940379,-18.803448,9.733509
1421632164963.00,-1.5447876,-19.279758,-6.3426104
1421632164977.00,6.634204,-19.229013,-8.000263
1421632164997.00,7.7444453,-19.517612,-3.0500574
1421632165018.00,6.8966084,-16.742983,-7.818691
1421632165037.00,7.20362,-11.952794,-9.364377
1421632165058.00,3.0844858,-9.795032,-7.440428
1421632165080.00,2.3104453,-5.729336,-10.15129
1421632165099.00,3.579207,-3.3862581,-6.7855396
1421632165117.00,0.9062155,-1.8290465,0.12169693
1421632165137.00,-1.2786411,0.44741958,0.16690293
1421632165161.00,-1.6212785,-0.34413436,-2.2089565
1421632165178.00,-1.0268646,-6.0400896,-0.6512956
1421632165197.00,3.009342,-16.161293,1.4688954
1421632165280.00,-3.3741333,-19.115997,-6.6213307
1421632165281.00,-7.606133,-18.035694,-2.673291
1421632165282.00,-8.277487,-18.803448,0.21270767
1421632165283.00,-5.913603,-19.4754,4.870272
1421632165298.00,-0.1300795,-18.075062,6.3238993
1421632165317.00,1.9546353,-11.811488,1.8805394
1421632165338.00,0.25911117,-6.0577526,3.635041
1421632165357.00,-3.5735188,-1.7217196,2.8205845
1421632165378.00,-6.8066454,2.5840764,2.335144
1421632165397.00,-7.3664813,5.6461086,0.04430786
1421632165418.00,-6.413563,6.4017377,-0.56342834
1421632165439.00,-4.6843586,3.8166132,-1.8708097
1421632165458.00,3.4928367,-3.9751337,-8.300988
1421632165480.00,7.709568,-17.0949,-15.457456
1421632165497.00,3.3759298,-14.434783,-13.43591
1421632165518.00,-2.1209395,-1.3798306,7.1480856
1421632165537.00,-8.0210705,-6.113587,12.750186
1421632165610.00,-16.624279,-17.516724,14.830709
1421632165611.00,-6.9572325,-8.841963,0.4447252
1421632165612.00,-7.240443,-6.742728,-0.3939807
1421632165622.00,-7.7086697,-12.70962,9.207354
1421632165639.00,-5.4423823,-17.919985,8.171207
1421632165658.00,-0.6186635,-19.295025,-1.0442286
1421632165677.00,4.086502,-17.380507,-2.8589048
1421632165701.00,4.4560833,-18.703754,-0.2468367
1421632165721.00,4.660259,-18.741476,-4.336931
1421632165737.00,5.281467,-14.490317,-11.277997
1421632165757.00,4.0824604,-12.682976,-10.609338
1421632165777.00,1.9202069,-8.270601,-6.743327
1421632165800.00,2.2333558,-4.1613464,-6.6596513
1421632165818.00,5.85223,-3.3456926,-6.201903
1421632165837.00,4.627627,-2.4602838,-0.327968
1421632165857.00,0.57166123,-1.4476396,1.974993
1421632165922.00,-2.0679498,-1.2957056,-0.120200045
1421632165923.00,-1.8058448,-7.858658,-3.1910641
1421632165924.00,1.0118958,-16.791931,-2.1607566
1421632165938.00,-4.9416738,-19.201769,-5.480553
1421632165957.00,-8.041877,-19.185604,-2.5138724
1421632165977.00,-5.8640556,-19.398611,-0.6503975
1421632165997.00,-2.3444247,-19.556383,4.475992
1421632166019.00,1.1936178,-17.184864,5.394632
1421632166038.00,2.3041584,-10.632091,1.8604811
1421632166057.00,0.5906717,-6.460565,3.0237122
1421632166078.00,-2.8313622,-2.5512946,2.4589367
1421632166097.00,-6.8687663,1.7197738,1.723965
1421632166118.00,-8.586445,4.8499146,0.014968872
1421632166138.00,-7.466324,6.114485,0.6644682
1421632166157.00,-5.95312,5.2383566,0.22498214
1421632166177.00,-0.21989273,-0.086969145,-4.001928
1421632166198.00,10.009984,-14.97007,-13.874049
1421632166218.00,6.390062,-18.189125,-17.373022
1421632166275.00,-0.8680449,-5.1373167,7.91045
1421632166277.00,-10.249336,-12.691059,12.371623
1421632166278.00,-11.5646515,-16.870966,12.162508
1421632166299.00,-8.08873,-3.4983752,4.538263
1421632166317.00,-9.807006,-8.070019,5.0644183
1421632166337.00,-9.246122,-16.788038,13.228741
1421632166357.00,-5.762417,-19.201172,6.810088
1421632166377.00,3.389252,-18.8991,-12.445569
1421632166398.00,7.5318875,-19.140846,-2.7156527
1421632166419.00,6.028414,-18.772612,-2.0944445
1421632166439.00,4.4848237,-14.704672,-10.104737
1421632166458.00,2.6812243,-11.283536,-9.330098
1421632166477.00,0.48065048,-8.567434,-5.709577
1421632166498.00,0.9912387,-4.036656,-7.5655675
1421632166518.00,4.1055126,-2.843936,-6.691535
1421632166539.00,2.7702892,-1.7452208,0.12813355
1421632166613.00,-0.30341902,-0.58558226,0.2838098
1421632166614.00,-2.0907023,-1.7051042,-0.97776675
1421632166615.00,-1.169518,-9.401051,-1.3862672
1421632166625.00,1.8250049,-17.87882,-2.0305276
1421632166637.00,-5.793852,-19.349663,-5.510341
1421632166657.00,-8.254135,-17.634678,-1.2874727
1421632166678.00,-6.356981,-19.205362,0.24968079
1421632166700.00,-1.728755,-19.334394,4.6291237
1421632166720.00,1.6976198,-15.953525,7.6375675
1421632166737.00,2.611619,-9.518556,2.347718
1421632166757.00,-0.39457947,-5.5230646,4.054169
1421632166777.00,-3.8199065,-1.4166541,3.3699422
1421632166797.00,-7.1364098,2.792443,2.8219318
1421632166822.00,-7.3494167,5.9025254,3.1081367
1421632166838.00,-6.112539,4.943021,1.0349479
1421632166900.00,-5.4233723,3.9474413,-2.565964
1421632166900.00,3.382516,-4.7190866,-12.025094
1421632166902.00,6.183641,-17.387691,-16.867224
1421632166917.00,2.4860303,-12.000395,-7.870783
1421632166938.00,-3.6122882,-2.151925,11.698473
1421632166957.00,-13.342804,-15.255077,12.372671
1421632166977.00,-10.235715,-12.983401,9.021589
1421632167006.00,-8.307724,-3.575315,4.5463457
1421632167018.00,-9.60313,-11.213182,11.076666
1421632167039.00,-7.1221895,-18.14856,12.258159
1421632167058.00,-0.07080276,-19.386335,-9.270372
1421632167078.00,5.926775,-17.554745,-5.9418936
1421632167097.00,6.6075597,-18.40378,1.6108003
1421632167117.00,4.611161,-18.337616,-5.6890697
1421632167137.00,4.545448,-16.268919,-11.72856
1421632167158.00,3.3943415,-12.033925,-8.756491
1421632167177.00,0.35506165,-8.09322,-6.634803
1421632167235.00,-0.20477417,-3.2718961,-7.323221
1421632167238.00,3.0196705,-1.7655785,-5.7534356
1421632167239.00,2.8710296,-0.90696394,-1.0716215
1421632167259.00,0.13516891,0.103734285,-0.17708176
1421632167277.00,-1.2915143,-1.0178833,-0.6673123
1421632167298.00,-1.0452763,-7.492968,-1.2678635
1421632167317.00,2.9650342,-17.447268,-0.49531996
1421632167338.00,-4.2248144,-19.290834,-6.731053
1421632167358.00,-7.7688446,-17.53259,-2.822231
1421632167378.00,-6.9805837,-19.111807,-0.4406836
1421632167398.00,-3.4170942,-19.44202,2.60159
1421632167418.00,0.90501803,-16.981438,6.630312
1421632167438.00,3.1097832,-11.044184,1.877845
1421632167462.00,0.82328796,-6.2188177,2.821782
1421632167479.00,-2.4860303,-2.4019053,2.7610085
1421632167497.00,-6.6795597,1.4715898,2.0549269
1421632167518.00,-7.508536,3.9838157,0.70458484
1421632167574.00,-6.8105373,4.785698,0.043409728
1421632167575.00,-5.2572174,2.2821543,-1.4841636
1421632167580.00,2.1573138,-4.147126,-11.330987
1421632167598.00,6.023474,-16.57563,-16.319664
1421632167617.00,3.146457,-14.854361,-12.763059
1421632167639.00,-2.0210972,-1.5462844,9.420211
1421632167657.00,-9.015902,-11.260035,10.154733
1421632167677.00,-12.8414955,-16.890127,10.762469
1421632167699.00,-8.060139,-6.0496697,4.854854
1421632167721.00,-9.162895,-9.33399,7.7468405
1421632167737.00,-6.9888167,-15.708783,12.77698
1421632167758.00,-2.4667203,-19.054476,-2.7629545
1421632167778.00,5.4286113,-18.467846,-9.371412
1421632167797.00,6.6830025,-18.09632,-1.2609777
1421632167818.00,5.498366,-18.632055,-3.2476466
1421632167879.00,4.867877,-15.028748,-10.908416
1421632167880.00,2.8036697,-12.067455,-9.529932
1421632167881.00,-0.43813887,-8.577763,-6.165828
1421632167897.00,0.0796344,-4.2933717,-7.9830494
1421632167917.00,3.8001475,-2.3306534,-6.682703
1421632167937.00,4.0420446,-1.687441,0.21555176
1421632167957.00,1.3645624,-0.45789778,0.06451584
1421632167977.00,-0.35371444,-1.7324972,-0.7433542
1421632167997.00,0.29219237,-7.08836,-0.31090346
1421632168017.00,3.773054,-17.587826,-0.17633331
1421632168038.00,-3.339705,-19.309994,-7.230564
1421632168059.00,-7.3230715,-18.80734,-3.4447865
1421632168077.00,-5.322781,-19.450104,-0.8457413
1421632168101.00,-1.0789562,-19.563269,2.0872595
1421632168120.00,1.9375708,-16.90779,6.216423
1421632168137.00,3.2491434,-10.059681,2.0438497
1421632168158.00,0.96234876,-6.33303,3.879782
1421632168229.00,-2.4498055,-2.3219714,3.0543983
1421632168230.00,-6.404282,1.6357983,2.5502467
1421632168231.00,-7.773784,4.215983,0.2830614
1421632168243.00,-7.1009336,5.595065,1.1569442
1421632168263.00,-6.0013204,4.483776,0.87088895
1421632168278.00,-3.705694,0.78481793,-1.2463083
1421632168299.00,8.658594,-13.353881,-15.904127
1421632168318.00,6.97759,-18.734142,-18.88967
1421632168338.00,2.2656884,-6.2990513,2.5471032
1421632168362.00,-4.8635364,-3.4919386,13.59443
1421632168378.00,-16.480429,-16.839832,12.387191
1421632168398.00,-8.239466,-7.863897,5.344486
1421632168417.00,-7.951914,-4.7580056,5.1087265
1421632168439.00,-9.214239,-15.0961075,13.774206
1421632168457.00,-6.655909,-18.96556,8.848699
1421632168477.00,-0.13217515,-19.497404,-11.691887
1421632168545.00,5.7456517,-18.333574,-4.697531
1421632168546.00,5.710026,-18.800156,-0.5427713
1421632168547.00,5.7540345,-17.519567,-8.118518
1421632168558.00,5.377717,-13.730348,-10.857073
1421632168577.00,3.1838791,-10.559491,-7.938741
1421632168598.00,0.57166123,-6.60232,-6.2122316
1421632168617.00,2.2643414,-3.0537996,-9.184751
1421632168640.00,4.2299037,-1.5344591,-2.5795858
1421632168661.00,2.4559429,-0.32272887,0.40850052
1421632168677.00,-0.12888199,-0.24174729,-0.92283094
1421632168697.00,-1.3847704,-1.4061759,-2.184108
1421632168717.00,-1.0244696,-6.344257,-1.1546988
1421632168742.00,3.9149587,-15.883321,-0.42691222
1421632168759.00,1.2243041,-19.078127,-5.226681
1421632168777.00,-5.9878483,-19.512672,-3.6000137
1421632168798.00,-8.311466,-19.5718,-2.7830126
1421632168817.00,-3.566783,-19.43723,6.1417284
1421632168895.00,2.1195922,-18.794167,6.2695622
1421632168897.00,3.8450541,-11.989168,2.7316694
1421632168898.00,2.3730154,-8.6136875,2.3903792
1421632168899.00,-1.3196558,-4.6901965,2.9301567
1421632168917.00,-5.808222,0.4445755,1.8890717
1421632169000.00,-7.9111986,2.6473947,-0.6658154
1421632169002.00,-8.06433,4.5074267,-0.8569679
1421632169003.00,-7.5625734,3.7178187,0.18381774
1421632169004.00,-5.5818925,1.5495776,-0.49981064
1421632169017.00,6.3301864,-7.5624237,-15.214511
1421632169050.00,7.66511,-17.946331,-15.163917
1421632169057.00,1.7817448,-11.52169,-9.013656
1421632169083.00,-0.7348219,1.9935544,11.145972
1421632169097.00,-7.8005786,-11.206146,8.30518
1421632169117.00,-15.0574875,-18.366657,11.72362
1421632169141.00,-7.375313,-5.3241286,6.570586
1421632169205.00,-7.437883,-9.171877,7.6904078
1421632169206.00,-6.998846,-14.773678,13.134137
1421632169207.00,-4.4598255,-18.853146,4.113596
1421632169217.00,4.3152266,-19.012413,-11.289074
1421632169238.00,6.7970653,-18.626665,-2.1333637
1421632169258.00,6.008206,-18.66828,-2.4804919
1421632169277.00,5.1653085,-16.543747,-8.884175
1421632169298.00,3.348387,-12.346625,-9.745634
1421632169318.00,1.0755135,-8.051008,-7.158414
1421632169340.00,-0.084424436,-4.1959248,-8.270901
1421632169357.00,2.309697,-1.9062859,-7.1729336
1421632169377.00,3.1759455,-0.57660097,0.7276369
1421632169397.00,2.0140617,-0.14834152,1.1383827
1421632169417.00,2.0071762,-1.2250525,0.24069947
1421632169438.00,2.186054,-6.0396404,-1.3802797
1421632169457.00,4.7316604,-15.899936,0.3221301
1421632169479.00,-1.0984159,-19.080372,-3.9924974
1421632169532.00,-8.033943,-19.512972,-2.7783723
1421632169533.00,-8.813373,-17.750238,-3.4298177
1421632169544.00,-2.9312046,-19.150726,-2.1962328
1421632169557.00,2.3221211,-19.522552,6.4421535
1421632169580.00,2.669848,-14.887741,4.5708947
1421632169597.00,2.4071443,-8.945548,3.1702573
1421632169619.00,-0.27318192,-6.1296034,3.15454
1421632169641.00,-4.36148,-1.4187497,3.3563204
1421632169658.00,-7.6011934,2.6403594,1.6040643
1421632169679.00,-8.2936535,5.281467,-0.43739045
1421632169698.00,-7.5910144,6.5147524,1.1187735
1421632169717.00,-5.7348742,4.5614643,2.0227437
1421632169738.00,0.6797365,-0.7831714,-1.1032059
1421632169758.00,11.524983,-14.54196,-16.666042
1421632169778.00,4.78959,-18.128202,-18.189425
1421632169855.00,0.7734416,-4.942123,3.9064264
1421632169856.00,-6.2932134,-6.2641735,10.484797
1421632169858.00,-15.241755,-17.762962,10.55994
1421632169859.00,-8.059839,-6.21777,6.291716
1421632169877.00,-10.437196,-4.983587,5.940247
1421632169898.00,-9.010063,-16.86438,13.641882
1421632169918.00,-6.1623855,-19.208206,11.645483
1421632169938.00,3.0600865,-19.530487,-13.008698
1421632169958.00,8.767867,-18.826052,-3.7779937
1421632169982.00,7.628137,-18.540146,-3.2970438
1421632170000.00,5.6024,-15.76791,-10.385104
1421632170018.00,3.0404773,-12.214001,-8.913814
1421632170038.00,1.8753003,-8.491242,-5.38116
1421632170058.00,0.13906083,-3.274291,-6.366411
1421632170078.00,1.6658858,-0.7104227,-8.823551
1421632170100.00,2.5551865,-0.26749375,-1.0750644
1421632170118.00,0.24623795,-0.24429199,1.0352472
1421632170200.00,0.522713,-0.2547702,1.0786569
1421632170201.00,0.30057496,-2.863246,-1.4584172
1421632170202.00,0.9798624,-9.386381,-2.350113
1421632170203.00,5.7453523,-17.591867,-0.003442841
1421632170218.00,-0.44277924,-19.310593,-4.1921825
1421632170237.00,-5.4851933,-19.544407,-2.8629465
1421632170258.00,-5.460046,-19.561172,-1.7914746
1421632170280.00,1.3624667,-19.575094,4.276008
1421632170317.00,0.7101233,-17.959803,6.625522
1421632170318.00,2.11585,-13.051209,3.6375856
1421632170337.00,0.27931917,-6.571185,2.2653892
1421632170358.00,-2.9744647,-2.2233267,2.3828948
1421632170377.00,-7.9185333,1.7324972,2.1480331
1421632170397.00,-8.9795265,4.554429,0.23246658
1421632170418.00,-7.9602966,5.3923864,1.060844
1421632170437.00,-6.067782,3.7741017,1.4759308
1421632170500.00,0.87627774,-0.26090744,-4.5277843
1421632170501.00,8.0950165,-14.27746,-17.08158
1421632170502.00,4.579726,-17.00868,-15.834672
1421632170522.00,0.5610333,-2.4715104,7.276668
1421632170537.00,-3.4256263,1.8589842,13.068873
1421632170558.00,-13.648618,-14.000985,15.75369
1421632170585.00,-9.836346,-16.128511,1.8103354
1421632170598.00,-3.7947588,-5.869744,-3.4449363
1421632170618.00,-5.4422326,-10.782228,9.397608
1421632170637.00,-3.3039293,-16.751814,10.803035
1421632170658.00,-0.27153534,-19.196232,-0.24803421
1421632170678.00,4.9879274,-18.244211,-7.852072
1421632170698.00,5.6262,-19.226618,-2.3079007
1421632170717.00,4.7969246,-17.62869,-7.4821906
1421632170738.00,4.170627,-13.019775,-10.386302
1421632170757.00,2.1725821,-9.934092,-8.690628
1421632170821.00,0.9216335,-5.5158796,-5.1259403
1421632170822.00,2.3189776,-2.210603,-9.463321
1421632170823.00,5.1789303,-0.67898804,-1.7562977
1421632170837.00,3.3497343,-0.51687515,0.87148774
1421632170858.00,1.3241464,-1.4780264,0.33395553
1421632170883.00,0.619861,-2.797233,0.47945297
1421632170898.00,1.4193485,-8.490494,-0.20821701
1421632170918.00,5.45795,-17.659975,-0.8876541
1421632170937.00,-1.9734961,-19.319874,-4.742438
1421632170958.00,-6.4828687,-19.545605,-2.4399261
1421632170978.00,-7.448361,-18.95209,-2.7036777
1421632170997.00,-0.3556604,-19.421513,5.9635987
1421632171028.00,0.98944247,-19.261196,5.1697993
1421632171038.00,2.6641598,-12.599449,3.1488519
1421632171058.00,1.0205777,-7.093,2.6773324
1421632171078.00,-1.2093352,-3.032544,2.5776398
1421632171102.00,-5.797594,1.4043796,1.3316308
1421632171176.00,-8.08858,3.680696,-0.2481839
1421632171177.00,-8.034692,4.5581713,0.8370593
1421632171178.00,-6.438112,3.58265,1.5621514
1421632171179.00,-4.6913943,1.1463162,1.3504916
1421632171202.00,6.0123973,-9.149424,-13.497432
1421632171224.00,7.4736586,-17.98016,-16.757952
1421632171238.00,3.4281712,-8.581355,-3.8640647
1421632171258.00,-1.509012,3.5473232,12.434193
1421632171278.00,-10.099498,-12.590468,12.241544
1421632171299.00,-9.577085,-15.880626,7.6914554
1421632171318.00,-5.509144,-4.2906775,3.4560132
1421632171339.00,-6.37659,-10.112072,6.6957264
1421632171358.00,-4.6144543,-16.414865,8.138126
1421632171379.00,-3.0163774,-19.150427,-3.744613
1421632171399.00,4.0914416,-17.29279,-4.3948607
1421632171484.00,6.326594,-18.221159,-0.1803749
1421632171485.00,6.3854213,-18.644777,-3.986959
1421632171486.00,5.7062836,-14.534176,-9.202863
1421632171487.00,4.3983035,-11.024425,-8.271949
1421632171498.00,2.142345,-8.397537,-7.689809
1421632171518.00,0.036973115,-4.6078677,-6.0843973
1421632171538.00,2.2556593,-1.6356486,-6.1878324
1421632171558.00,4.971462,-0.36434233,-1.2820839
1421632171577.00,2.7494824,-0.30386811,-0.0291893
1421632171598.00,0.4340973,-1.1196716,-0.34787658
1421632171617.00,0.29533586,-5.339696,-0.7247928
1421632171638.00,4.7307625,-15.0624275,0.9340576
1421632171658.00,1.3522879,-18.96646,-3.8220022
1421632171677.00,-5.4167857,-19.497555,-2.8171418
1421632171698.00,-7.056626,-19.569855,-2.170786
1421632171717.00,-2.8219318,-19.337986,-1.2156221
1421632171738.00,2.4254065,-19.548,5.3995714
1421632171802.00,2.2793102,-15.8415575,4.2745113
1421632171803.00,2.4891737,-8.514594,2.742896
1421632171804.00,0.23396347,-5.6270986,3.8314326
1421632171819.00,-3.747008,-0.50100815,2.7966344
1421632171838.00,-7.759564,2.6575735,0.16151413
1421632171858.00,-8.697064,4.19323,-1.6527132
1421632171879.00,-7.6942997,4.1251216,-0.8367599
1421632171898.00,-6.0763144,1.8146764,-0.17453705
1421632171918.00,4.9503555,-4.846322,-10.162067
1421632171938.00,8.173004,-17.162111,-16.265625
1421632171958.00,2.983446,-12.276122,-10.6608305
1421632171978.00,-2.6473947,2.945874,12.003838
1421632171998.00,-9.861194,-12.465328,9.498797
1421632172018.00,-11.640992,-18.041382,9.037157
1421632172038.00,-6.804849,-4.8912287,3.2970438
1421632172060.00,-7.789801,-9.617051,8.912466
1421632172078.00,-4.5237427,-16.819324,11.836935
1421632172133.00,-1.2528946,-19.205511,-2.6457481
1421632172133.00,5.9198895,-17.522411,-8.482261
1421632172144.00,7.2606516,-17.57705,-2.0011885
1421632172158.00,5.9282722,-18.332678,-3.160378
1421632172180.00,5.231022,-15.459702,-8.665929
1421632172197.00,4.3498044,-11.57483,-9.405242
1421632172218.00,2.6511369,-9.298663,-7.6278377
1421632172238.00,0.11301498,-4.47689,-8.131091
1421632172258.00,2.347718,-2.1737795,-7.7181
1421632172278.00,3.0201197,0.15163468,1.3566289
1421632172298.00,1.9013461,0.37287462,2.3836432
1421632172317.00,1.3853691,-0.33889526,-0.717458
1421632172338.00,0.73078036,-4.1650887,-2.9764106
1421632172358.00,3.238366,-11.934233,0.67734146
1421632172378.00,5.522765,-18.476976,-1.7067508
1421632172398.00,-2.6644592,-19.430943,-3.9197488
1421632172460.00,-6.350095,-19.560722,-2.88046
1421632172461.00,-3.513344,-19.524797,-1.6146922
1421632172462.00,2.919978,-19.573446,4.98194
1421632172479.00,3.100203,-17.232315,4.8608418
1421632172498.00,2.735262,-10.611882,3.042573
1421632172518.00,0.787662,-7.5538917,3.0246103
1421632172538.00,-2.950664,-3.1569352,2.9912298
1421632172559.00,-7.7695932,0.8813672,1.1551479
1421632172580.00,-9.98289,3.6964133,-0.407303
1421632172598.00,-9.25226,4.5388613,-0.40026763
1421632172620.00,-7.5351806,3.814817,0.085621946
1421632172638.00,-2.7747798,0.10074051,-1.44749
1421632172658.00,8.31955,-11.639346,-15.726447
1421632172677.00,5.7472982,-17.490828,-16.502283
1421632172698.00,2.3333478,-8.169861,-1.719624
1421632172765.00,-0.6185138,-2.4304957,15.567028
1421632172766.00,-11.690839,-17.116756,10.535392
1421632172767.00,-6.895411,-10.778337,7.0007915
1421632172778.00,-8.277786,-2.5408163,4.7702804
1421632172797.00,-8.592133,-11.491603,11.907438
1421632172818.00,-5.641768,-17.982405,9.399853
1421632172838.00,-0.44936553,-19.363733,-7.2654414
1421632172860.00,6.4438,-16.862135,-5.4134927
1421632172880.00,6.8388286,-18.159937,-1.4156063
1421632172902.00,5.953719,-18.381924,-4.542903
1421632172918.00,4.580924,-16.038548,-8.868757
1421632172938.00,4.4867697,-10.740016,-8.1899185
1421632172958.00,4.0454874,-7.556287,-7.1022806
1421632172978.00,0.7168593,-3.387306,-5.729186
1421632172998.00,1.7001644,-2.143243,-7.4875793
1421632173017.00,3.6958146,-0.46523255,-0.95351714
1421632173038.00,2.8919861,-0.6147716,0.5574408
1421632173109.00,1.2111315,-1.5925384,-0.84589094
1421632173110.00,0.43439665,-4.815486,-1.0921289
1421632173111.00,3.1370265,-13.74352,0.8972342
1421632173122.00,3.0496082,-18.770218,-3.0894256
1421632173138.00,-3.5702257,-19.47091,-3.6729121
1421632173158.00,-5.8188496,-19.566113,-2.8629465
1421632173178.00,-3.805686,-19.51896,-3.106939
1421632173197.00,1.8776953,-19.572699,4.7276187
1421632173218.00,1.6780106,-17.741856,4.3628273
1421632173238.00,2.321672,-11.269316,2.7397528
1421632173258.00,0.6595285,-7.9074564,3.205584
1421632173278.00,-1.9257454,-3.4576597,3.5726206
1421632173298.00,-6.2776456,1.1524534,2.4161255
1421632173317.00,-8.4150505,3.4298177,-0.13097763
1421632173338.00,-8.295749,5.5366864,-0.41044647
1421632173359.00,-7.0826716,5.161716,0.7659572
1421632173425.00,-1.8239571,0.34413436,-1.6793578
1421632173427.00,7.755672,-11.640543,-14.627132
1421632173428.00,5.9242306,-18.002165,-18.5141
1421632173437.00,0.84484315,-7.2232294,3.5507662
1421632173458.00,-3.3467405,3.1320868,14.292579
1421632173477.00,-10.137369,-10.886711,12.079281
1421632173497.00,-12.319981,-17.2398,6.225554
1421632173519.00,-4.7792616,-6.015391,-1.5441889
1421632173538.00,-5.705835,-9.830507,8.721165
1421632173558.00,-2.391876,-17.642761,14.023139
1421632173579.00,-0.09071136,-19.317478,-2.5595274
1421632173598.00,6.2254043,-18.084942,-7.1961355
1421632173619.00,6.5758257,-17.726439,-2.6435027
1421632173638.00,5.8790245,-18.059046,-6.7903295
1421632173658.00,4.445156,-15.293996,-10.178983
1421632173678.00,1.877845,-10.116263,-9.109906
1421632173697.00,0.93345886,-6.087092,-5.413942
1421632173718.00,0.49936157,-2.697241,-6.3339286
1421632173775.00,3.8161643,-0.89334226,-5.220993
1421632173777.00,4.893474,-0.0690065,-0.3568579
1421632173778.00,1.4069242,-1.3061838,-0.47870454
1421632173798.00,-1.131497,-1.8384769,-2.481839
1421632173818.00,-1.3901591,-5.3217335,-1.1597883
1421632173837.00,2.9379406,-14.831608,0.64036834
1421632173857.00,3.3177009,-18.935024,-5.048851
1421632173878.00,-3.5158887,-19.493214,-3.9059775
1421632173898.00,-6.3993425,-19.569256,-2.409689
1421632173918.00,2.317331,-19.579584,6.3306355
1421632173937.00,3.4102085,-17.236057,5.669011
1421632173958.00,3.8779857,-11.852054,3.1630723
1421632173978.00,1.8318906,-8.852591,3.6265087
1421632173999.00,-1.2347822,-5.3408937,3.6247125
1421632174019.00,-6.3445563,-0.4076024,2.242337
1421632174089.00,-8.656349,1.6223264,0.39502853
1421632174090.00,-8.343799,3.1799872,0.42511597
1421632174091.00,-7.801626,2.7634034,-0.59980273
1421632174100.00,-3.3636553,0.10523117,-4.1399407
1421632174120.00,5.570067,-9.370364,-16.22491
1421632174138.00,4.4051895,-16.950151,-17.428257
1421632174158.00,0.03996689,-2.2435346,10.01657
1421632174178.00,-4.1766148,-9.164692,10.400223
1421632174199.00,-11.40673,-18.137333,9.82482
1421632174218.00,-5.9044714,-8.563692,5.538183
1421632174238.00,-7.4354877,-6.34291,8.93013
1421632174258.00,-6.4854136,-14.890585,14.390026
1421632174278.00,-3.3382082,-18.93637,5.831573
1421632174298.00,5.547314,-19.29787,-13.0313015
1421632174318.00,8.700807,-18.377733,-5.8260345
1421632174338.00,6.804101,-18.287172,-3.0639784
1421632174358.00,5.7812777,-15.8150625,-9.576785
1421632174416.00,3.3510814,-11.595188,-9.2184305
1421632174417.00,1.9252963,-7.8206367,-7.1301227
1421632174422.00,0.9008267,-4.079317,-8.55486
1421632174438.00,3.165168,-0.86579955,-6.0207796
1421632174458.00,3.2407608,0.5519023,0.26914033
1421632174478.00,1.1958632,0.46164,-1.0774595
1421632174502.00,0.12933105,-0.50894165,-1.7679734
1421632174522.00,1.3102254,-5.3971767,-0.05957611
1421632174542.00,6.1450214,-15.4989195,-1.0316547
1421632174558.00,4.736301,-19.025885,-5.7020926
1421632174579.00,-3.5706747,-19.505638,-4.825665
1421632174598.00,-4.9238605,-19.570902,-2.5405169
1421632174618.00,0.7958949,-19.579733,5.2283278
1421632174638.00,3.186274,-16.90749,4.623735
1421632174657.00,3.5765126,-10.381212,2.513573
1421632174720.00,0.8825647,-7.3630385,4.064348
1421632174721.00,-1.8074913,-4.702621,4.4595265
1421632174722.00,-6.4949937,-0.3266208,3.4515226
1421632174738.00,-9.181008,3.1096334,-0.38799316
1421632174758.00,-9.328002,5.9002805,-2.2658381
1421632174777.00,-8.673713,5.2479367,-0.123493195
1421632174798.00,-3.827391,-0.8970845,-0.53169435
1421632174818.00,6.0743685,-10.597213,-12.8310175
1421632174840.00,6.6416883,-18.359173,-17.950521
1421632174858.00,2.8889923,-7.835306,-0.94588304
1421632174878.00,-2.5623715,4.8318024,14.549145
1421632174898.00,-8.5574045,-11.803854,10.485994
1421632174918.00,-10.820698,-18.508263,5.911956
1421632174940.00,-4.0200405,-6.399193,1.9327807
1421632174957.00,-5.4365444,-12.50814,8.897198
1421632174978.00,-4.368366,-14.917829,10.267448
1421632174997.00,-2.7292745,-18.815424,-0.73572004
1421632175019.00,6.5484324,-18.94655,-8.393945
1421632175101.00,8.431966,-18.947298,-3.9276824
1421632175102.00,7.70837,-17.281115,-6.623576
1421632175103.00,5.6751485,-13.933925,-9.455537
1421632175104.00,2.1915925,-10.067764,-8.571177
1421632175118.00,-0.4285588,-5.54462,-6.268215
1421632175138.00,0.07738907,-2.5743465,-8.332273
1421632175158.00,2.8592043,-0.398172,-4.299509
1421632175178.00,2.8827055,-0.19938537,0.3528163
1421632175198.00,0.6658154,-0.58902514,-0.14624588
1421632175218.00,-0.028590545,-2.5209076,-0.9653426
1421632175238.00,2.588567,-10.038425,-0.775687
1421632175262.00,7.1515284,-18.025517,-0.10837463
1421632175280.00,-0.86355424,-19.369572,-4.430786
1421632175298.00,-4.978946,-19.552341,-3.2304323
1421632175372.00,-5.6814356,-19.577188,-3.0606852
1421632175374.00,2.0466938,-19.580631,8.144713
1421632175375.00,3.099754,-17.583336,5.1452503
1421632175385.00,3.2479458,-11.352392,3.19301
1421632175399.00,1.0621911,-7.7507324,2.8431876
1421632175418.00,-1.5149995,-5.1702485,3.3254845
1421632175438.00,-5.649851,0.17827927,1.4558725
1421632175458.00,-8.109836,2.54875,-0.7572752
1421632175479.00,-7.6716967,3.3928444,-0.61537033
1421632175498.00,-7.534282,2.8490255,0.5019063
1421632175518.00,-2.9568014,-0.6221063,-2.2722747
1421632175538.00,5.82349,-10.137968,-15.421231
1421632175559.00,4.451443,-15.2439995,-14.017301
1421632175578.00,-1.3765374,1.1123369,11.955488
1421632175598.00,-3.7426672,-2.0281324,12.295132
1421632175619.00,-12.337194,-16.486715,10.437046
1421632175638.00,-5.9674907,-14.07044,5.1706977
1421632175662.00,-3.7940104,-6.88628,4.8653326
1421632175732.00,-4.9802933,-12.591516,8.941506
1421632175733.00,-4.045787,-17.85427,6.2162733
1421632175734.00,2.141297,-19.34622,-8.639434
1421632175744.00,9.058263,-18.33612,-7.9924793
1421632175758.00,7.9255686,-18.767075,-4.185147
1421632175778.00,5.793852,-15.387102,-6.9974985
1421632175798.00,3.8832247,-11.707603,-9.714349
1421632175818.00,1.8227595,-7.6040373,-7.032526
1421632175840.00,0.004041595,-5.0129256,-4.885241
1421632175861.00,1.1820918,-2.233206,-7.305708
1421632175881.00,3.5890865,-0.22752686,-2.1766236
1421632175899.00,2.1978796,0.11256592,1.2573853
1421632175919.00,-0.61507094,-0.50011003,-1.4810202
1421632175939.00,-1.7865349,-3.2480955,-1.8895208
1421632175958.00,1.6790584,-12.438983,-0.5275031
1421632175978.00,5.909561,-18.481617,-1.4193485
1421632176034.00,-2.0996838,-19.431541,-3.841312
1421632176036.00,-5.7288866,-19.560873,-4.397705
1421632176044.00,-3.5663338,-19.578386,-2.4089406
1421632176058.00,3.9589672,-19.580782,8.089178
1421632176082.00,4.097579,-15.227983,3.0543983
1421632176098.00,3.9631586,-10.244396,2.943479
1421632176119.00,0.5628296,-7.4982076,3.4423914
1421632176138.00,-3.4389486,-2.8092082,3.5860927
1421632176167.00,-6.9066377,1.4491365,0.837209
1421632176178.00,-8.546477,2.957849,-0.40430924
1421632176198.00,-7.964039,3.617677,2.3156846
1421632176218.00,-6.840625,2.7158024,1.2332854
1421632176238.00,-3.0698164,-0.07723938,-0.83795744
1421632176258.00,3.886967,-11.788586,-15.719411
1421632176278.00,4.867129,-16.774267,-14.458134
1421632176298.00,0.9068143,0.48244676,8.666827
1421632176383.00,-2.816992,-5.911507,10.34394
1421632176384.00,-11.455678,-17.650995,9.691297
1421632176385.00,-4.256249,-8.811576,6.082751
1421632176386.00,-5.6511984,-6.9250493,7.945178
1421632176399.00,-6.184689,-14.353801,12.165502
1421632176418.00,-3.6265087,-18.866766,5.0810337
1421632176439.00,4.0637493,-18.867065,-10.24305
1421632176459.00,7.20362,-17.582138,-5.1491423
1421632176478.00,6.177055,-17.953066,-2.0270846
1421632176498.00,4.5535307,-15.2014885,-7.250323
1421632176518.00,3.156486,-11.706556,-10.189012
1421632176538.00,2.849774,-8.581804,-7.7689943
1421632176558.00,1.6277151,-5.085225,-6.77566
1421632176578.00,2.609224,-2.6619146,-7.9469743
1421632176598.00,4.0665936,-0.5755531,-2.1002824
1421632176618.00,1.6664845,-0.26599684,1.2229569
1421632176640.00,0.19564316,-0.2746788,0.8152048
1421632176725.00,-0.40266266,-1.1922706,-0.5430707
1421632176726.00,0.85427356,-7.6911564,-1.1015593
1421632176727.00,6.7093477,-17.41703,1.0626402
1421632176728.00,1.5067667,-19.286793,-3.5934274
1421632176741.00,-2.7620564,-19.541115,-3.0981073
1421632176759.00,-4.61655,-19.575691,-3.5110986
1421632176780.00,0.43888733,-19.309696,1.0734178
1421632176803.00,4.581373,-19.544258,3.669619
1421632176818.00,2.9698243,-15.403419,2.0402572
1421632176838.00,2.0805235,-10.356962,1.332978
1421632176859.00,-1.284928,-7.1534743,2.8797116
1421632176878.00,-4.7133985,-2.1683908,3.3263826
1421632176898.00,-8.024513,1.2003539,-0.012274475
1421632176918.00,-8.970396,3.3679962,-1.6182847
1421632176938.00,-7.8624,3.9748342,-0.18276992
1421632177004.00,-6.109096,2.436184,0.75173676
1421632177006.00,-0.3546126,-1.9127225,-4.403543
1421632177006.00,6.7295556,-13.504317,-16.165934
1421632177019.00,4.3825865,-13.393249,-10.684931
1421632177038.00,0.33410522,2.4336393,10.9422455
1421632177058.00,-3.3552728,-7.282506,8.4155
1421632177078.00,-11.288625,-17.894688,6.7955685
1421632177098.00,-3.1487021,-6.9042425,1.8950592
1421632177118.00,-6.1448717,-5.1178575,6.327043
1421632177138.00,-5.9103093,-12.058325,12.451258
1421632177158.00,-4.203858,-18.181192,8.236921
1421632177178.00,3.6902761,-19.10477,-10.92084
1421632177199.00,8.52627,-17.780025,-4.7476773
1421632177218.00,7.2283187,-17.715511,-1.703308
1421632177238.00,5.9399476,-16.5659,-7.2091584
1421632177259.00,3.3025823,-12.215049,-9.8849945
1421632177279.00,2.527494,-8.74257,-7.669601
1421632177338.00,0.2890489,-5.0070877,-6.6330066
1421632177339.00,1.6654367,-2.1408482,-7.417226
1421632177340.00,4.0218368,0.003891907,-0.7408095
1421632177358.00,2.9307554,0.3023712,0.25012985
1421632177378.00,1.2484039,-0.9421408,-0.6709049
1421632177398.00,0.1817221,-2.9568014,-0.5420229
1421632177418.00,2.0483406,-9.522597,0.8042775
1421632177438.00,5.553751,-17.89319,-0.69066375
1421632177458.00,-2.02454,-19.351608,-4.195775
1421632177480.00,-4.9277525,-19.549946,-4.1677833
1421632177498.00,-3.8827758,-19.56192,-3.4576597
1421632177519.00,2.2347028,-19.143541,6.018684
1421632177539.00,2.8680358,-18.642233,4.4426117
1421632177558.00,2.7086174,-13.306878,2.9562025
1421632177578.00,1.2268487,-8.771909,2.4108865
1421632177598.00,-1.397943,-5.3067646,3.1609766
1421632177618.00,-5.1144147,-0.83661026,2.2525158
1421632177645.00,-8.087981,1.9005977,-0.66252226
1421632177709.00,-8.5943775,3.8829255,-2.6087751
1421632177710.00,-7.139703,4.212091,-0.44697052
1421632177711.00,-3.4572108,0.28096572,2.1665945
1421632177718.00,5.706134,-6.519842,-8.831485
1421632177738.00,8.94435,-17.560732,-17.382902
1421632177758.00,3.3284783,-12.7819195,-9.720635
1421632177778.00,-0.3143463,0.2255809,7.1254826
1421632177798.00,-4.4396176,0.41134462,9.216784
1421632177818.00,-14.787748,-15.404467,10.221345
1421632177839.00,-7.7748322,-16.713194,0.85666853
1421632177859.00,-3.5889368,-6.582861,2.5444088
1421632177881.00,-4.311784,-11.684402,8.439151
1421632177899.00,-1.2084371,-15.680942,11.130404
1421632177919.00,1.8351837,-19.050585,-1.3121713
1421632177939.00,7.961494,-16.400944,-3.0296998
1421632178016.00,9.250613,-17.270187,1.9214044
1421632178018.00,6.461164,-19.132164,-3.1864238
1421632178019.00,4.555327,-19.339483,-7.1745806
1421632178019.00,3.2415092,-13.888719,-10.652298
1421632178039.00,2.0902534,-9.898766,-9.830807
1421632178058.00,-0.7674541,-5.159022,-7.04959
1421632178078.00,0.25911117,-2.0290306,-7.081324
1421632178098.00,3.1037955,-0.314496,-2.7267296
1421632178118.00,3.9505847,0.46523255,-0.5629793
1421632178138.00,2.188,-0.68183213,-0.0889151
1421632178158.00,1.3747412,-3.2245944,0.20597167
1421632178178.00,2.6541307,-10.029444,1.2368779
1421632178198.00,6.5021787,-17.587526,3.317102
1421632178218.00,-0.81550413,-19.309994,-2.74095
1421632178238.00,-2.3541546,-19.481539,-1.9311342
1421632178258.00,-3.1364279,-19.56761,-3.0720615
1421632178338.00,-2.3816972,-19.021395,-0.97342575
1421632178339.00,1.8847307,-19.064655,9.029673
1421632178340.00,1.924997,-17.848883,3.8636155
1421632178341.00,2.751129,-10.850187,1.4447955
1421632178359.00,-0.057779845,-6.6536636,2.0948937
1421632178378.00,-3.2454011,-3.3229399,3.508554
1421632178398.00,-6.354436,0.8734337,1.387315
1421632178418.00,-8.249196,3.732638,-1.0728191
1421632178438.00,-7.7082205,4.5532317,-0.6180647
1421632178458.00,-6.9126253,3.3805702,0.77419007
1421632178480.00,-2.499203,-0.6873706,-0.70114195
1421632178498.00,5.4982166,-7.994276,-14.231655
1421632178521.00,3.931275,-16.72996,-15.149696
1421632178540.00,-0.6414162,-6.024372,5.37637
1421632178558.00,-2.3824456,-5.8350163,10.428364
1421632178578.00,-9.954749,-17.620308,6.2518992
1421632178644.00,-4.118386,-9.065897,5.399272
1421632178645.00,-6.53511,-2.1520748,6.7093477
1421632178646.00,-6.1183767,-11.025772,11.231444
1421632178662.00,-3.4765205,-17.834812,15.492783
1421632178678.00,1.5820601,-19.343674,-5.7034397
1421632178698.00,7.9863424,-15.519128,-6.2176204
1421632178718.00,7.4600368,-16.727415,1.7058526
1421632178739.00,5.066963,-18.12401,-2.9563522
1421632178758.00,2.6990373,-16.449892,-8.674761
1421632178779.00,3.2419584,-12.255764,-10.694361
1421632178798.00,3.873046,-8.620723,-8.36715
1421632178818.00,1.3063334,-5.1316285,-8.058792
1421632178838.00,1.5263759,-3.1388228,-9.201665
1421632178859.00,3.5539095,-0.77972853,-2.380799
1421632178878.00,3.444487,-0.04535568,2.8198361
1421632178898.00,2.8443851,-0.33380586,1.9246975
1421632178963.00,3.2510893,-4.0555167,-0.3715274
1421632178964.00,6.254893,-12.979659,2.3939717
1421632178965.00,3.6634817,-18.55182,-1.9178119
1421632178978.00,-5.5199213,-19.441122,-3.640729
1421632178998.00,-7.5875716,-19.56207,-2.8967762
1421632179022.00,-6.05416,-19.578537,-3.3341665
1421632179038.00,-3.0587394,-19.580782,0.9792636
1421632179058.00,1.7595909,-19.295176,3.5190322
1421632179078.00,3.4623,-11.302097,2.8418403
1421632179099.00,2.205813,-7.6149645,2.497706
1421632179118.00,-1.5817608,-4.098178,3.2025902
1421632179140.00,-4.8841934,-1.1051518,3.660488
1421632179158.00,-6.501131,2.2906866,-0.23860382
1421632179178.00,-8.115224,4.9235616,-2.4526496
1421632179200.00,-6.845714,6.411318,-0.0968486
1421632179218.00,-2.7996283,3.52966,1.0919793
1421632179238.00,4.2299037,-3.7904177,-5.951923
1421632179261.00,6.373746,-14.534775,-16.799864
1421632179319.00,1.6266674,-11.98842,-7.527846
1421632179320.00,-1.4940431,-0.3878435,13.663437
1421632179321.00,-4.9392786,-11.905044,13.463303
1421632179338.00,-8.936117,-18.537003,2.2980213
1421632179359.00,-3.9139109,-7.763456,1.3358221
1421632179378.00,-5.5774016,-6.791976,8.641081
1421632179398.00,-5.527705,-14.191988,13.408517
1421632179419.00,-2.6316774,-18.634,11.831845
1421632179438.00,4.944967,-19.452349,-7.367978
1421632179458.00,9.81015,-17.132622,-7.292086
1421632179478.00,8.158934,-16.373402,-4.383185
1421632179498.00,6.705905,-15.940651,-7.4777
1421632179519.00,4.1983194,-12.235107,-7.98739
1421632179538.00,2.1071682,-8.224497,-7.317533
1421632179624.00,-0.33230895,-4.2053547,-7.2498736
1421632179625.00,1.4715898,-1.6506175,-7.135811
1421632179626.00,3.1320868,-0.31374756,-2.0950434
1421632179627.00,1.9740949,-0.77583665,-1.4422508
1421632179642.00,-0.09235794,-2.0583696,-3.142565
1421632179658.00,-0.31763947,-5.7507415,-0.7952962
1421632179678.00,2.0181034,-14.663358,1.7363892
1421632179698.00,-0.4340973,-18.912271,-7.7261834
1421632179720.00,-5.6025496,-17.923428,-5.2283278
1421632179740.00,-3.2135174,-19.174227,-0.89903045
1421632179759.00,3.0129347,-19.525846,2.8952792
1421632179778.00,6.40054,-16.621885,3.7043467
1421632179799.00,5.447472,-10.131981,3.5341506
1421632179818.00,1.1383827,-5.632637,6.238577
1421632179838.00,-2.339036,-3.3320708,5.175338
1421632179859.00,-5.39538,0.39757323,2.6566753
1421632179879.00,-7.865244,4.3623786,-1.3356725
1421632179955.00,-7.782017,6.1445723,-2.3287075
1421632179957.00,-5.709577,3.692671,-1.4111155
1421632179959.00,0.4514612,-3.3980837,-6.0713744
1421632179960.00,6.0511665,-14.197825,-16.689993
1421632179979.00,0.4297563,-13.577665,-11.557017
1421632179998.00,-3.8475988,-1.8598824,12.452006
1421632180018.00,-5.52546,-2.5662634,10.698552
1421632180039.00,-16.654816,-16.525187,7.2572083
1421632180063.00,-2.8834538,-13.346845,-3.629203
1421632180082.00,-0.28994706,-3.7161722,7.7679462
1421632180098.00,-1.3245955,-11.034154,10.915002
1421632180118.00,-0.26000932,-16.918268,12.541071
1421632180138.00,0.6965016,-19.218985,-1.6239729
1421632180158.00,6.0260186,-15.372433,-4.2349935
1421632180178.00,7.4217167,-15.654147,1.873055
1421632180198.00,5.093009,-17.561031,-3.8752913
1421632180261.00,3.818709,-18.670225,-7.5040455
1421632180262.00,3.4865496,-13.2003,-8.925639
1421632180263.00,4.5743375,-7.951764,-7.6951976
1421632180278.00,2.5246499,-4.388574,-5.4188814
1421632180298.00,2.6095235,-2.6623635,-7.5476046
1421632180318.00,5.418582,-1.1674223,-2.8523185
1421632180338.00,4.7535152,-0.8693921,0.66955763
1421632180358.00,1.452729,-1.3974938,-1.1600876
1421632180378.00,-0.8833131,-2.700235,-4.685257
1421632180398.00,-0.61522067,-8.567434,-1.4700929
1421632180418.00,3.6170783,-17.281862,0.001047821
1421632180439.00,-2.8205845,-19.268381,-5.2352133
1421632180458.00,-7.149133,-19.538568,-4.938979
1421632180478.00,-4.6569657,-19.575394,-1.40902
1421632180498.00,2.1516256,-19.580332,5.1865644
1421632180518.00,3.969146,-17.870888,4.4291396
1421632180589.00,3.5805542,-10.568024,3.182083
1421632180590.00,1.0324031,-6.3632674,3.2293844
1421632180591.00,-2.5008495,-2.3658302,3.4319134
1421632180599.00,-6.8898726,1.4400055,2.706971
1421632180618.00,-9.07413,4.636009,-1.8875748
1421632180638.00,-8.436606,7.7106156,-3.078199
1421632180658.00,-5.768704,6.518794,0.8313711
1421632180678.00,0.15417938,1.6793578,-0.15717316
1421632180704.00,6.5244823,-10.000854,-11.869717
1421632180718.00,5.241201,-14.237343,-17.236057
1421632180738.00,-1.3953983,-4.0854545,9.365873
1421632180758.00,-2.8629465,-2.349065,12.785064
1421632180778.00,-14.231206,-16.279995,12.730127
1421632180798.00,-6.4662533,-17.371525,-4.845274
1421632180818.00,-3.0186226,-3.757187,2.939138
1421632180838.00,-3.681145,-10.298285,12.199182
1421632180858.00,-0.56492525,-17.748741,16.20575
1421632180932.00,2.7830126,-19.33185,-0.7141649
1421632180933.00,7.303911,-15.971637,-6.623726
1421632180934.00,7.3193293,-17.817448,-0.44517425
1421632180959.00,5.989944,-18.998194,-4.8952703
1421632180960.00,5.271438,-16.923807,-11.277248
1421632180979.00,3.9695952,-10.720856,-10.198143
1421632180998.00,1.663341,-7.294032,-8.276888
1421632181018.00,0.22767654,-3.8101766,-7.05932
1421632181041.00,2.6234446,-1.8053956,-3.4874477
1421632181069.00,4.3974056,-0.7339238,0.047301635
1421632181080.00,3.7851787,-1.3858181,-1.2253518
1421632181102.00,1.0626402,-2.4695644,-2.9909303
1421632181118.00,0.105680235,-5.680687,-1.7808467
1421632181147.00,4.491111,-15.371534,1.0347981
1421632181158.00,2.3468199,-19.008522,-3.253185
1421632181178.00,-4.227808,-19.503242,-4.082011
1421632181198.00,-6.6466284,-19.570602,-4.1866436
1421632181271.00,0.9647438,-19.579733,4.8999104
1421632181272.00,2.7563682,-19.550844,7.1593122
1421632181273.00,3.2015424,-11.707603,3.6527042
1421632181285.00,2.7472372,-7.692653,3.3588653
1421632181298.00,0.6794371,-3.6305501,3.030598
1421632181319.00,-4.535119,0.8533754,1.9202069
1421632181338.00,-8.379575,3.9948926,-1.8538948
1421632181358.00,-9.697884,6.1078987,-1.9493963
1421632181378.00,-8.542436,6.3869185,2.0670516
1421632181398.00,-3.766168,3.1716046,1.4200969
1421632181418.00,4.216432,-4.660259,-8.560847
1421632181439.00,5.9430914,-13.890065,-17.428856
1421632181458.00,1.3254936,-9.804761,-0.46493316
1421632181479.00,-2.7779233,-7.54521,13.800102
1421632181498.00,-8.383018,-17.775387,8.680748
1421632181518.00,-4.884343,-12.089759,3.9570212
1421632181592.00,-5.9722805,-4.5586205,5.0621734
1421632181593.00,-6.010152,-11.792478,9.661209
1421632181596.00,-2.956502,-18.481318,11.703712
1421632181608.00,1.022823,-19.431541,-2.205364
1421632181620.00,6.4699955,-16.313826,-5.01068
1421632181641.00,7.980804,-15.575261,2.2559588
1421632181658.00,6.7803,-18.384619,-1.3674065
1421632181683.00,6.4643073,-19.388283,-4.8283596
1421632181705.00,6.3496456,-13.640834,-11.496693
1421632181719.00,3.6052527,-11.96941,-10.068213
1421632181738.00,0.62450135,-7.4636292,-9.076226
1421632181758.00,1.4340179,-3.3973353,-7.29493
1421632181778.00,3.9137614,0.24878265,-2.7451415
1421632181798.00,2.9398866,-0.11047027,-0.27512786
1421632181818.00,0.23830444,0.24099883,-1.1400293
1421632181839.00,-0.6768924,-1.3015435,-1.6338524
1421632181910.00,1.510958,-9.203162,-2.5875192
1421632181911.00,7.294032,-17.798887,-0.41478744
1421632181912.00,-0.54726195,-19.338736,-3.8646634
1421632181922.00,-6.0483227,-19.54815,-2.8542645
1421632181938.00,-5.682633,-19.57674,-1.0350975
1421632181958.00,1.6636405,-19.580482,1.5456858
1421632181979.00,4.9373326,-17.89888,3.993695
1421632181998.00,5.502108,-10.99284,1.4446459
1421632182020.00,2.0390596,-8.477621,1.8429675
1421632182039.00,-0.80592406,-4.7888417,3.3388069
1421632182061.00,-4.3084903,-0.94962525,1.9743942
1421632182078.00,-7.4399786,2.9945228,-3.814368
1421632182098.00,-9.789642,5.1955457,-6.1713667
1421632182118.00,-7.6841207,4.4047403,-2.7104137
1421632182138.00,-3.3793726,1.1847862,0.46493316
1421632182158.00,0.98540086,-5.1897078,-0.8813672
1421632182178.00,4.8466215,-12.357852,-7.6432557
1421632182257.00,4.655918,-14.3346405,-11.606265
1421632182258.00,1.664838,-6.8686166,-2.5132737
1421632182260.00,-4.3081913,-0.61402315,9.666598
1421632182261.00,-12.765604,-14.643,6.3372216
1421632182282.00,-5.4471726,-13.350737,1.3470488
1421632182299.00,-0.24444169,-7.356901,4.277505
1421632182318.00,-2.8683352,-7.700437,5.047055
1421632182338.00,-3.1805859,-12.010723,8.894504
1421632182358.00,-1.0761123,-17.853523,7.929161
1421632182378.00,3.7968545,-19.3311,-2.0728893
1421632182398.00,8.204739,-16.255747,0.5572911
1421632182418.00,9.138946,-16.424147,4.3863287
1421632182438.00,6.5008316,-18.468445,-2.6114695
1421632182458.00,4.75576,-19.402802,-3.769162
1421632182479.00,3.0687685,-15.659087,-9.390573
1421632182498.00,1.4859599,-13.218862,-15.819853
1421632182550.00,-1.3027409,-8.711584,-11.114088
1421632182551.00,-1.8335371,-4.0430923,-6.316415
1421632182559.00,1.4099181,-2.5081842,-2.7268794
1421632182578.00,3.7089872,-0.014519806,1.6986676
1421632182598.00,5.5586905,1.3332775,-0.4209247
1421632182618.00,5.552703,-0.8497829,0.14774276
1421632182638.00,3.532504,-3.9787261,-0.64575714
1421632182658.00,2.7207422,-10.489287,-2.8830047
1421632182678.00,6.2694125,-17.634079,2.5994942
1421632182698.00,-1.882635,-19.316282,-3.0750554
1421632182719.00,-4.0466847,-19.545156,-2.6438022
1421632182738.00,-4.7196856,-19.57629,-3.858077
1421632182758.00,-2.9264145,-19.580482,-2.1170475
1421632182782.00,0.891546,-19.581081,3.3132102
1421632182802.00,3.213817,-18.54763,3.5928288
1421632182818.00,3.3024325,-12.268936,3.2967443
1421632182838.00,2.1763244,-8.20384,2.5045917
1421632182909.00,-0.176483,-4.5882587,3.21711
1421632182910.00,-3.551365,-1.6645386,1.4100678
1421632182911.00,-6.629564,1.9592757,-2.4873774
1421632182922.00,-8.978479,4.7235775,-2.8966265
1421632182938.00,-8.092621,5.918842,0.4352948
1421632182958.00,-4.356391,2.4644752,1.2642709
1421632182982.00,2.1757255,-4.4680586,-5.6784415
1421632183000.00,4.8557525,-11.795471,-15.113172
1421632183018.00,3.2772849,-12.516072,-13.160033
1421632183039.00,-0.619861,-2.0270846,8.416398
1421632183058.00,-4.611311,-9.102871,11.053464
1421632183078.00,-8.404872,-18.085093,4.111949
1421632183100.00,-3.2822247,-11.269914,4.2239165
1421632183118.00,-5.6661673,-8.147707,6.795868
1421632183138.00,-4.867578,-10.8198,8.497379
1421632183208.00,-2.7433453,-15.57077,10.597063
1421632183209.00,0.40909928,-19.035616,-2.508334
1421632183210.00,7.060518,-17.098045,-2.412084
1421632183219.00,8.869805,-15.49443,3.6883302
1421632183238.00,7.8862004,-17.86954,-2.864144
1421632183258.00,6.678512,-19.318228,-4.9813414
1421632183279.00,6.428083,-14.635515,-8.855735
1421632183298.00,4.283792,-11.97854,-11.066637
1421632183319.00,0.6813831,-8.092173,-8.253238
1421632183341.00,-0.4673282,-3.4519715,-8.171357
1421632183358.00,2.2564077,-0.93375826,-3.8996906
1421632183378.00,3.7564385,1.3355228,1.6395406
1421632183399.00,3.0653257,0.4682263,0.68587375
1421632183424.00,1.843267,-2.1929398,-0.77613604
1421632183438.00,3.7384758,-9.668244,-1.5858023
1421632183459.00,4.746031,-16.992365,-2.0818708
1421632183478.00,-0.690065,-19.229013,-3.5757642
1421632183533.00,-5.2980824,-19.53333,-2.8410919
1421632183534.00,-5.9757233,-19.574644,-3.176694
1421632183543.00,-1.6411872,-19.580332,-0.8625064
1421632183558.00,1.6833993,-19.581081,4.869823
1421632183578.00,5.8579183,-13.376334,2.8599527
1421632183598.00,4.040548,-8.671917,2.5997937
1421632183618.00,1.2618759,-5.0674124,3.4178426
1421632183638.00,-3.2123199,-1.791774,5.34748
1421632183659.00,-6.7437763,2.1097128,0.59695864
1421632183679.00,-10.188562,5.6940093,-2.6291327
1421632183699.00,-9.344318,6.5586114,-0.081430666
1421632183718.00,-4.205804,2.8259733,1.0103989
1421632183738.00,1.3057348,-3.0822403,-5.9553657
1421632183759.00,5.2919455,-12.840149,-16.232544
1421632183778.00,3.8540354,-12.708273,-11.8670225
1421632183798.00,-1.4885046,-4.7113028,11.384576
1421632183860.00,-6.5416965,-15.540683,8.951535
1421632183861.00,-6.81892,-16.159645,6.4128146
1421632183862.00,-6.1098447,-5.9022264,4.4265947
1421632183879.00,-6.9870205,-7.80941,7.776928
1421632183898.00,-3.8136196,-16.501236,12.681179
1421632183919.00,-0.39068756,-19.15881,6.3637166
1421632184011.00,5.138215,-18.033897,-9.389375
1421632184013.00,8.11223,-15.488741,-0.62959075
1421632184014.00,8.813522,-17.10029,1.705254
1421632184016.00,6.546636,-18.800156,-4.2978625
1421632184025.00,4.8608418,-15.501764,-7.9242215
1421632184038.00,3.8815782,-11.947555,-10.974877
1421632184065.00,1.9152672,-10.062225,-10.722802
1421632184078.00,-0.011076965,-5.4226236,-6.31881
1421632184098.00,1.0286609,-2.595303,-7.928263
1421632184119.00,4.2589436,-0.87522995,-3.8300853
1421632184185.00,3.7637732,-0.8108638,1.2196637
1421632184186.00,2.0627105,-1.3937516,3.9589672
1421632184187.00,2.544259,-6.417904,-0.43095383
1421632184199.00,4.239484,-17.348774,-2.6068292
1421632184218.00,-1.8414706,-19.277512,-3.478766
1421632184238.00,-4.0421944,-19.539917,-3.6139348
1421632184258.00,-3.5160384,-19.575542,-3.623515
1421632184278.00,-0.5019063,-19.580332,1.4591657
1421632184298.00,4.117787,-19.581081,4.00567
1421632184318.00,5.1606684,-15.243252,2.7159522
1421632184338.00,3.7741017,-9.986632,3.3394058
1421632184359.00,0.9156459,-6.84781,4.6978307
1421632184378.00,-2.2204826,-3.74132,4.857399
1421632184398.00,-5.9613533,-0.18995498,2.4132814
1421632184418.00,-9.80536,3.644621,-1.7224681
1421632184438.00,-11.289523,6.2873755,-1.2632232
1421632184458.00,-8.532107,6.191874,0.28874955
1421632184534.00,-1.3299843,0.93660235,-0.30701157
1421632184535.00,6.1935205,-9.71839,-11.390862
1421632184536.00,4.903054,-15.6727085,-18.082996
1421632184540.00,0.99543,-5.4362454,4.4261456
1421632184562.00,-3.8916073,-0.3248245,14.122083
1421632184582.00,-10.938653,-15.740817,7.556586
1421632184601.00,-6.5719337,-17.303417,2.0222945
1421632184618.00,-4.573739,-7.1055737,3.2600706
1421632184638.00,-4.2203236,-11.44969,7.8029737
1421632184659.00,-0.58303756,-15.043866,12.114458
1421632184678.00,2.2043161,-18.792072,3.3627572
1421632184698.00,7.505093,-17.117504,-4.665199
1421632184718.00,8.6225195,-16.148418,0.51268387
1421632184738.00,5.97243,-18.584902,-3.12086
1421632184759.00,4.056265,-17.89858,-5.180128
1421632184778.00,1.830244,-12.99822,-10.396181
1421632184840.00,2.9972172,-11.15166,-12.36354
1421632184841.00,2.4495063,-8.11238,-8.778345
1421632184843.00,0.17109421,-3.8435574,-8.811276
1421632184859.00,2.6628127,-1.1618838,-5.0081353
1421632184878.00,3.8020935,0.6471043,2.0088227
1421632184898.00,2.0422032,0.3743715,1.5801141
1421632184918.00,1.2696598,-1.5446379,0.9635463
1421632184938.00,4.578529,-12.7436,-2.5915608
1421632184958.00,5.2720366,-18.559456,-1.8510507
1421632184978.00,-3.0075457,-19.44217,-4.133804
1421632184999.00,-4.7725253,-19.56222,-3.7188666
1421632185018.00,-3.6536024,-19.578537,-3.0750554
1421632185038.00,2.166894,-19.580782,4.728966
1421632185058.00,4.6422963,-18.97005,3.8681061
1421632185079.00,5.4816008,-12.243789,3.2311807
1421632185100.00,2.5460556,-8.638536,3.548371
1421632185118.00,0.13816269,-5.6990986,4.1387434
1421632185215.00,-3.564238,-1.9920574,4.0383024
1421632185216.00,-7.539372,2.526147,-0.5289999
1421632185217.00,-11.072175,5.8627086,-2.6219475
1421632185223.00,-10.358459,7.4687185,0.16989669
1421632185224.00,-5.469027,3.393593,0.19699036
1421632185238.00,2.0992346,-4.819977,-6.4744864
1421632185258.00,5.0192127,-13.481864,-16.822317
1421632185279.00,2.91414,-13.472584,-10.945988
1421632185298.00,-0.3492238,-9.333691,10.894944
1421632185318.00,-4.266428,-17.428556,9.35794
1421632185339.00,-5.747897,-9.826765,7.3241196
1421632185361.00,-7.62679,-3.2376173,6.4182034
1421632185378.00,-8.580157,-7.0272865,6.813232
1421632185398.00,-4.93389,-16.4466,12.048145
1421632185418.00,-1.6660354,-19.154768,8.623418
1421632185438.00,4.6331654,-18.74926,-6.541397
1421632185509.00,8.706345,-16.35993,-2.5240512
1421632185510.00,8.820108,-17.211208,0.8014334
1421632185511.00,5.7119718,-19.038908,-4.4297385
1421632185520.00,3.9959404,-15.968044,-7.9457765
1421632185538.00,4.3321414,-12.020004,-11.556568
1421632185561.00,2.5228536,-10.003847,-10.558892
1421632185580.00,-0.35760635,-4.768035,-7.74714
1421632185598.00,1.2039464,-2.453997,-8.845855
1421632185618.00,3.4881964,0.24174729,-0.20971389
1421632185638.00,3.585943,-0.35102004,2.38035
1421632185658.00,1.5084132,-0.43604323,0.66686326
1421632185678.00,1.4188994,-4.5463457,-1.4153068
1421632185698.00,5.2344646,-16.165634,-2.2203329
1421632185718.00,2.633324,-19.113153,-3.1246023
1421632185738.00,-3.668122,-19.156115,-4.2725654
1421632185758.00,-5.231022,-19.5233,-4.0113583
1421632185780.00,-0.35116974,-19.573298,0.4805008
1421632185873.00,2.4878266,-19.580032,6.223608
1421632185874.00,4.2998085,-17.797241,4.1709266
1421632185876.00,3.7187169,-11.135942,2.214944
1421632185882.00,1.5639478,-7.610773,2.6867628
1421632185883.00,-1.8137783,-2.913691,3.4497263
1421632185899.00,-5.930667,1.4180013,1.3723462
1421632185919.00,-9.575737,4.716392,-2.8669882
1421632185941.00,-10.034683,6.317463,-0.91579556
1421632185959.00,-6.7668285,5.309309,1.2259506
1421632185978.00,-1.1308982,-1.1050022,-1.6771125
1421632185998.00,4.450246,-10.303524,-13.326937
1421632186018.00,5.222939,-15.598912,-15.139367
1421632186038.00,0.9380992,-4.4935055,6.061046
1421632186058.00,-3.5625916,-5.388195,10.899734
1421632186082.00,-9.198372,-16.52264,7.4274044
1421632186147.00,-6.0969715,-14.261443,4.8547044
1421632186148.00,-4.6842093,-6.4056296,5.1268387
1421632186149.00,-3.6437228,-12.078682,9.73321
1421632186158.00,-0.33874556,-17.027391,10.981015
1421632186178.00,1.9661614,-19.233803,-3.6796482
1421632186199.00,5.437742,-16.770226,-3.575315
1421632186218.00,6.633306,-16.134048,2.7134075
1421632186242.00,5.196444,-18.549576,-1.9288888
1421632186261.00,4.6409492,-18.458117,-4.5249405
1421632186278.00,3.7812867,-12.997622,-10.560539
1421632186298.00,2.8340566,-13.124258,-13.799205
1421632186318.00,0.38814285,-8.7576885,-7.8905416
1421632186338.00,0.17408799,-3.6497104,-9.4981985
1421632186359.00,3.211871,-1.8851798,-3.6618352
1421632186379.00,4.7509704,0.8196954,1.8669177
1421632186398.00,3.254233,-0.11391312,1.515748
1421632186457.00,1.3498929,-1.8522482,1.198857
1421632186459.00,2.2791605,-8.903036,-2.6830206
1421632186460.00,5.35691,-17.360897,-1.4944922
1421632186483.00,-0.6782396,-19.27916,-3.9314246
1421632186501.00,-4.7747707,-19.540066,-3.458408
1421632186527.00,-4.506828,-19.575542,-4.5099716
1421632186538.00,1.493145,-19.580332,8.301587
1421632186559.00,2.274071,-19.581081,3.4129028
1421632186580.00,4.414021,-12.545113,3.9435494
1421632186603.00,2.6541307,-7.9987664,2.889591
1421632186621.00,0.8452922,-4.815336,3.6693196
1421632186638.00,-2.8892918,-1.4006374,4.1529636
1421632186660.00,-6.7235684,1.9118243,-0.3107538
1421632186678.00,-9.637559,4.562213,-3.5798059
1421632186698.00,-8.762329,6.2156744,-0.41628432
1421632186718.00,-4.6138554,3.251239,1.8067429
1421632186785.00,3.084336,-4.637955,-5.9288707
1421632186786.00,6.802155,-16.074772,-16.641195
1421632186788.00,3.8627174,-14.518159,-10.423724
1421632186798.00,-2.4345374,-2.8238778,11.419902
1421632186818.00,-7.644603,-9.956994,8.273894
1421632186838.00,-8.811276,-12.732373,7.7197466
1421632186859.00,-8.606053,-7.951016,5.7434063
1421632186879.00,-7.759414,-10.078542,6.946006
1421632186901.00,-3.5636394,-17.33081,12.462784
1421632186918.00,2.1915925,-19.275118,7.686516
1421632186938.00,8.619975,-18.429676,-8.769364
1421632186958.00,9.302405,-15.708783,-0.3598517
1421632186979.00,7.551197,-17.646954,0.8270302
1421632187000.00,4.386778,-18.199005,-4.740043
1421632187019.00,2.0972886,-13.59922,-9.151968
1421632187039.00,1.6344512,-12.3735695,-10.572215
1421632187099.00,-0.2776726,-9.024284,-9.037756
1421632187100.00,-1.6362474,-4.208648,-7.7371106
1421632187101.00,1.1302996,-2.0196002,-7.4956627
1421632187125.00,3.4763708,0.60983187,0.14639556
1421632187138.00,3.5049615,0.27901977,0.407303
1421632187160.00,1.624422,-1.0958711,0.07903565
1421632187179.00,2.8879445,-8.098908,-0.773741
1421632187198.00,5.8184004,-16.538807,0.6010002
1421632187218.00,-0.4456233,-19.167341,-4.090993
1421632187240.00,-5.357958,-19.524797,-4.545298
1421632187259.00,-5.28012,-19.573446,-3.192112
1421632187278.00,-0.7803273,-19.580183,1.5084132
1421632187299.00,1.7920734,-19.391275,4.4641666
1421632187319.00,4.4947033,-14.042,4.206852
1421632187338.00,3.5789077,-8.436756,2.4004083
1421632187359.00,1.0344987,-5.077591,3.4462833
1421632187378.00,-2.5950036,-1.8535954,4.6542716
1421632187439.00,-6.489455,2.0281324,1.7295035
1421632187440.00,-9.174272,5.8164544,-0.19444565
1421632187441.00,-8.660541,6.564,0.98794556
1421632187461.00,-5.6001544,2.75547,0.025896149
1421632187479.00,3.458109,-6.0032663,-9.426198
1421632187498.00,5.555697,-17.323027,-18.130747
1421632187519.00,2.5191114,-11.412867,-1.6175363
1421632187539.00,-2.9729676,3.8327796,15.487992
1421632187558.00,-5.4413347,-6.866371,8.117021
1421632187578.00,-11.887529,-17.706678,5.330565
1421632187598.00,-3.6148329,-9.726474,1.6979191
1421632187619.00,-4.1159906,-7.3910303,5.6026993
1421632187638.00,-2.8668385,-13.20988,11.213182
1421632187659.00,0.58483386,-18.154697,6.724017
1421632187680.00,5.5290523,-18.830393,-5.857619
1421632187702.00,8.258027,-14.692098,-0.8276289
1421632187770.00,7.147936,-17.087866,-0.19414628
1421632187771.00,5.133874,-18.769619,-5.2790723
1421632187772.00,3.1936088,-14.623839,-9.7112055
1421632187781.00,2.570305,-11.6615,-11.474389
1421632187798.00,1.8356328,-9.150771,-9.037007
1421632187818.00,-0.60713744,-4.7229786,-7.0257897
1421632187839.00,1.9124231,-1.2985497,-6.957532
1421632187858.00,3.566783,0.086071014,0.8403525
1421632187882.00,2.1306694,-0.07978409,1.3692027
1421632187903.00,-0.047601014,-0.44532394,0.038020935
1421632187918.00,-1.0144404,-3.5666332,-3.1383736
1421632187939.00,2.7075696,-12.7819195,-2.5809329
1421632187958.00,4.5795765,-18.639389,-1.3407619
1421632187978.00,-2.9898825,-19.320324,-5.133126
1421632187998.00,-5.178182,-19.54231,-3.7727544
1421632188021.00,-0.27527755,-19.575842,-0.90187454
1421632188097.00,2.9753628,-19.580482,3.4826577
1421632188098.00,4.272116,-16.940573,3.5916312
1421632188099.00,3.9695952,-11.438912,1.7333953
1421632188100.00,2.720892,-8.434211,2.1294718
1421632188118.00,-0.7342232,-4.1995173,2.632875
1421632188138.00,-5.345534,-0.16121475,0.44667113
1421632188158.00,-8.889713,3.0624816,-3.8083804
1421632188178.00,-9.349109,4.7848,-2.9253666
1421632188199.00,-5.923931,3.6920724,-0.07319778
1421632188218.00,-0.7978409,-1.9061362,-1.4727874
1421632188239.00,3.374283,-9.337583,-10.603351
1421632188259.00,4.027824,-12.675791,-16.24018
1421632188278.00,-0.51941985,-4.6267285,4.333638
1421632188298.00,-5.24644,-3.0401778,12.102932
1421632188318.00,-10.51219,-15.140265,6.9057393
1421632188340.00,-7.2361026,-17.294287,1.9850221
1421632188422.00,-3.4215848,-9.510174,4.899312
1421632188423.00,-3.0575418,-12.10862,8.441995
1421632188424.00,1.5923886,-14.883699,11.814182
1421632188425.00,4.0164475,-18.94221,-0.2748285
1421632188439.00,7.295379,-17.313745,-2.5445585
1421632188459.00,7.074139,-15.469431,2.6056316
1421632188478.00,4.6985793,-18.844763,-3.1485527
1421632188498.00,3.9459443,-18.762283,-5.7279887
1421632188519.00,1.4130615,-12.740605,-9.813593
1421632188539.00,1.1826906,-11.416309,-10.97398
1421632188558.00,0.95351714,-7.340136,-7.652087
1421632188578.00,-0.40281236,-3.2736924,-7.8011775
1421632188601.00,2.718347,-1.7582437,-5.2513795
1421632188618.00,5.2886524,0.34682876,0.67449737
1421632188638.00,4.307892,-0.5132826,1.4667997
1421632188658.00,2.4821384,-2.7312205,0.6557863
1421632188679.00,3.902834,-11.047926,-1.0642868
1421632188698.00,3.0811927,-17.85487,-2.3863375
1421632188751.00,-2.8240273,-19.346369,-4.6984296
1421632188751.00,-5.8050785,-19.549198,-5.191504
1421632188760.00,-2.364932,-19.57674,-1.3172607
1421632188778.00,2.8635452,-19.580631,7.3139405
1421632188798.00,3.0413754,-17.457747,1.877845
1421632188818.00,3.7082386,-10.227033,3.3022828
1421632188838.00,1.7206719,-7.8011775,4.4604244
1421632188858.00,-0.5508545,-4.5644584,4.000581
1421632188878.00,-4.7496233,-0.748743,4.152515
1421632188899.00,-8.743468,3.5703754,1.0328522
1421632188918.00,-10.161619,6.462661,0.8758287
1421632188938.00,-8.061037,7.61706,2.0514839
1421632188958.00,-2.0164568,2.339036,0.7366182
1421632188979.00,7.107969,-10.810669,-12.384197
1421632189000.00,4.888534,-18.388212,-17.832716
1421632189018.00,3.8847218,-9.132809,-2.5834777
1421632189086.00,-2.0686982,-3.138673,14.241085
1421632189087.00,-8.704848,-16.547789,9.537866
1421632189087.00,-5.8007374,-11.160642,6.687194
1421632189099.00,-7.6005945,-3.9648051,4.615053
1421632189118.00,-7.8769197,-8.572074,5.085824
1421632189138.00,-4.7081594,-17.067657,11.819122
1421632189158.00,0.3623964,-19.239191,5.8505836
1421632189178.00,7.9966707,-17.972826,-6.788533
1421632189203.00,10.754236,-16.584463,0.69575316
1421632189219.00,8.906778,-18.144817,-0.28171417
1421632189238.00,4.7794113,-19.339035,-5.7127204
1421632189258.00,3.6491117,-15.459552,-9.394165
1421632189279.00,2.4848328,-11.971056,-12.813804
1421632189298.00,0.02350113,-8.828641,-11.31512
1421632189318.00,-2.2520669,-3.3784745,-8.547376
1421632189339.00,0.7827223,-1.0885364,-3.4194891
1421632189411.00,3.7827837,0.84349597,0.16525635
1421632189412.00,4.5575724,0.291893,-0.50130755
1421632189413.00,3.9525306,-1.9555335,0.5252577
1421632189422.00,4.061953,-5.803581,2.29383
1421632189438.00,7.455995,-15.09012,4.06345
1421632189458.00,3.7583845,-18.970201,-1.1412268
1421632189478.00,-2.570754,-19.455643,-3.0972092
1421632189499.00,-5.7547827,-19.564016,-2.3569987
1421632189520.00,-5.664371,-19.578836,-3.9630089
1421632189546.00,-1.6012203,-19.580782,3.0154793
1421632189558.00,1.8720071,-19.310293,3.7591329
1421632189579.00,4.074377,-10.751243,2.3782544
1421632189598.00,2.389032,-6.173612,2.2960753
1421632189618.00,-0.7695497,-3.1798375,4.500691
1421632189639.00,-4.176016,0.22602996,1.7633331
1421632189658.00,-7.5208106,3.3838632,-2.6744883
1421632189715.00,-8.788525,5.009333,-0.12992981
1421632189716.00,-6.735693,4.001778,1.2741504
1421632189720.00,-1.7486637,-1.2308904,-3.7303927
1421632189744.00,2.597249,-11.0299635,-14.921271
1421632189759.00,3.459456,-15.472574,-13.880785
1421632189778.00,0.32976425,-3.2380664,7.7169027
1421632189799.00,-3.035388,-8.46325,9.6847105
1421632189819.00,-7.688911,-17.954264,7.084917
1421632189839.00,-4.3156757,-11.365715,6.7741632
1421632189858.00,-6.082152,-7.2889423,6.4491887
1421632189878.00,-3.8564305,-13.009297,10.189311
1421632189899.00,-1.0234218,-17.488882,9.652228
1421632189918.00,2.73616,-19.296522,-2.7378068
1421632189940.00,6.806945,-15.52781,-5.579048
1421632189958.00,7.135661,-17.375866,0.37990996
1421632189978.00,5.306615,-18.913769,-4.4634185
1421632189998.00,3.8386176,-15.818505,-7.7942915
1421632190071.00,3.1479537,-11.269316,-8.853339
1421632190072.00,2.6652076,-9.347761,-9.152567
1421632190073.00,0.26973906,-5.401817,-7.492669
1421632190082.00,-0.33650026,-2.821333,-6.970555
1421632190099.00,2.5173151,-0.43065444,-1.2301419
1421632190118.00,3.4875975,0.03502716,1.1542497
1421632190141.00,2.1037252,-1.0861413,-0.6156697
1421632190167.00,2.0938458,-7.3203773,-2.624193
1421632190179.00,4.5470943,-16.308735,0.472717
1421632190201.00,-0.37047958,-19.136057,-3.5295103
1421632190219.00,-5.014722,-19.520607,-5.755232
1421632190238.00,-4.67897,-19.572847,-3.5058596
1421632190258.00,0.6119275,-19.580032,4.910239
1421632190279.00,1.8031503,-18.828596,3.8914576
1421632190300.00,3.9950423,-12.338991,3.1045442
1421632190318.00,3.0928683,-7.4109387,3.1986983
1421632190338.00,1.0871892,-4.6622047,4.2785525
1421632190358.00,-1.9863694,-2.1487815,4.6681924
1421632190429.00,-5.9826093,2.1282742,0.8650511
1421632190430.00,-8.825348,5.7237973,-2.0585194
1421632190431.00,-8.656199,6.805897,-0.20672013
1421632190442.00,-3.9068756,3.2153137,-0.5040019
1421632190458.00,2.893483,-5.637876,-10.214608
1421632190479.00,4.2978625,-15.664775,-18.275047
1421632190499.00,1.7251625,-11.141631,-0.199086
1421632190522.00,-4.0444393,-8.74257,14.230008
1421632190539.00,-7.39597,-16.961529,8.433612
1421632190558.00,-6.4488893,-9.31483,6.321205
1421632190578.00,-8.9204,-4.882696,4.237987
1421632190598.00,-6.975045,-11.590997,8.870704
1421632190618.00,-2.233655,-18.362915,14.177019
1421632190638.00,5.4236712,-19.415375,-2.9571006
1421632190724.00,10.8418045,-16.643888,-5.1187553
1421632190725.00,9.913585,-15.559394,3.2549813
1421632190726.00,5.878725,-18.695822,-4.283193
1421632190727.00,3.234474,-17.60968,-9.003777
1421632190738.00,1.2472064,-12.203822,-9.574689
1421632190759.00,-0.27617568,-9.560319,-10.065219
1421632190779.00,-1.6187339,-5.4971685,-6.48721
1421632190799.00,-0.5195696,-2.2406905,-8.392148
1421632190830.00,3.0202694,-0.08008347,-2.7517278
1421632190852.00,4.718338,0.640518,1.7543519
1421632190861.00,3.8197567,-0.6996451,0.82104266
1421632190878.00,1.6971707,-3.2600706,-0.95980406
1421632190898.00,2.973716,-11.563454,-0.77269316
1421632190918.00,3.6823425,-18.279688,-0.97686857
1421632190938.00,-3.5588493,-19.404148,-1.970652
1421632190959.00,-6.1101437,-19.55713,-3.5188825
1421632190979.00,-4.2363405,-19.574495,-3.9314246
1421632191051.00,2.1839585,-19.580183,8.272397
1421632191052.00,3.3287778,-19.159708,4.4970984
1421632191052.00,4.0215373,-12.6356735,4.191284
1421632191060.00,2.7369087,-7.802824,3.520529
1421632191078.00,-0.006436615,-4.2408314,4.2073007
1421632191098.00,-3.8318815,-0.34293687,3.6568954
1421632191118.00,-6.8880763,3.3181498,-0.7731422
1421632191139.00,-8.322992,5.649851,-1.4421011
1421632191162.00,-7.0918026,5.927973,-0.084424436
1421632191179.00,-3.02955,1.121917,-2.170786
1421632191198.00,2.9147387,-7.5916133,-12.876224
1421632191219.00,4.542903,-14.136752,-16.4701
1421632191239.00,0.7789801,-5.415289,6.7603917
1421632191259.00,-1.9896625,-0.4948709,13.5941305
1421632191278.00,-9.103619,-12.795392,9.238189
1421632191344.00,-6.6527653,-18.19167,-2.396217
1421632191345.00,-2.0963905,-6.1661277,1.3513898
1421632191346.00,-4.1082067,-6.0198817,5.947432
1421632191359.00,-3.1593301,-12.287947,10.924433
1421632191378.00,0.41418868,-18.22056,7.5890684
1421632191399.00,6.117778,-19.35101,-4.3626776
1421632191418.00,8.78104,-13.387561,-2.6074278
1421632191443.00,6.070177,-15.221546,0.46403503
1421632191468.00,4.291875,-18.592087,-3.1760952
1421632191480.00,2.5393195,-18.28792,-5.9933867
1421632191498.00,0.027243348,-11.116483,-13.176499
1421632191518.00,0.7551796,-10.047706,-12.947026
1421632191538.00,-0.8909473,-5.1630635,-5.8389077
1421632191559.00,1.0708731,-2.0965402,-7.398964
1421632191579.00,4.432882,-0.07469467,-0.04086502
1421632191599.00,4.7282176,-0.5957611,2.3381379
1421632191619.00,2.3324497,-0.9701326,0.51552796
1421632191674.00,0.6147716,-3.6815941,-1.6395406
1421632191675.00,2.5396187,-12.828473,-3.5151403
1421632191684.00,4.171226,-18.534607,-0.9403446
1421632191699.00,-2.7860065,-19.438726,-2.7900481
1421632191718.00,-6.3352757,-19.558477,-3.6326458
1421632191738.00,-3.8047879,-19.578087,-3.6473153
1421632191759.00,0.5556445,-19.580782,8.445887
1421632191778.00,2.5128245,-17.663418,4.111949
1421632191799.00,3.6627333,-12.2472315,1.9669098
1421632191819.00,2.418371,-7.945926,2.2650898
1421632191848.00,-0.011526031,-3.8854702,3.4319134
1421632191858.00,-4.1867933,0.27617568,2.8659403
1421632191882.00,-7.8381505,3.5199304,-2.0621119
1421632191898.00,-8.759335,6.0369463,-2.0930974
1421632191919.00,-6.370602,5.570516,-0.2532733
1421632191982.00,-1.9166144,-0.49292496,-3.368595
1421632191983.00,3.5655854,-9.792935,-12.207564
1421632191984.00,3.0903237,-14.341976,-14.331647
1421632191998.00,1.183439,-8.170909,1.660497
1421632192018.00,-3.405119,-2.502496,12.54616
1421632192038.00,-9.578281,-15.509847,7.99233
1421632192058.00,-7.2588553,-15.788118,2.6158104
1421632192079.00,-4.0790176,-6.9165173,5.5783
1421632192100.00,-4.2261615,-10.903925,9.558074
1421632192118.00,-0.90591615,-15.143858,11.791729
1421632192139.00,2.3661296,-18.940563,0.17992584
1421632192159.00,6.4704447,-17.02769,-4.949907
1421632192178.00,6.4156585,-14.220728,2.4206164
1421632192198.00,5.535489,-17.50385,-1.6227754
1421632192219.00,4.986281,-18.967506,-6.815178
1421632192239.00,3.1476545,-14.08017,-11.052267
1421632192259.00,2.169738,-10.948832,-9.194779
1421632192327.00,0.7445517,-7.919581,-7.340585
1421632192328.00,-0.1393602,-3.7268,-7.6342745
1421632192329.00,2.4893234,-2.2659879,-6.9960017
1421632192342.00,3.6110907,-0.594863,-0.14804214
1421632192359.00,2.1517754,-0.48469207,2.8961773
1421632192379.00,0.58707917,-2.0230432,0.46134064
1421632192398.00,2.8928843,-11.980038,-3.4313145
1421632192419.00,5.281467,-18.496737,-0.9066646
1421632192438.00,-2.1395009,-19.433638,-4.286486
1421632192458.00,-6.307284,-19.561022,-4.9277525
1421632192478.00,-2.5197103,-19.578386,-3.1033466
1421632192498.00,0.93345886,-19.580782,5.945187
1421632192519.00,3.9597158,-17.327517,5.773045
1421632192540.00,3.8558319,-9.713151,2.9412336
1421632192558.00,2.2585034,-6.2252545,4.0574627
1421632192579.00,-0.7203021,-2.3873854,3.822152
1421632192599.00,-4.431535,1.4191988,1.7468674
1421632192687.00,-8.128098,4.6608577,-2.1248314
1421632192687.00,-9.436526,6.8383794,-2.164948
1421632192688.00,-5.711074,6.0460773,1.0725197
1421632192689.00,-0.17438737,-1.4184504,-0.26824218
1421632192723.00,4.102818,-13.060491,-12.0462
1421632192723.00,4.895869,-18.543737,-17.39802
1421632192738.00,0.4830455,-1.7441729,8.80514
1421632192759.00,-5.9878483,1.6239729,10.4726715
1421632192781.00,-13.427977,-13.36376,9.38683
1421632192801.00,-10.879376,-15.919246,1.8603314
1421632192819.00,-4.2117915,-8.253686,4.6099634
1421632192839.00,-0.61073,-16.16204,10.291998
1421632192859.00,5.579647,-19.104921,7.8038716
1421632192878.00,7.398814,-19.516415,-4.88569
1421632192899.00,7.0644093,-16.456778,2.0920496
1421632192965.00,4.797374,-16.720978,0.41598496
1421632192966.00,3.8055363,-18.914368,-4.270769
1421632192967.00,2.7463388,-16.105608,-6.955436
1421632192979.00,1.0520123,-11.942017,-9.817036
1421632192998.00,-0.06780899,-9.828412,-11.608211
1421632193018.00,-2.4186704,-5.0196614,-6.081254
1421632193038.00,-0.981509,-3.6428246,-7.5702076
1421632193058.00,2.586172,-1.3659096,-1.6423846
1421632193078.00,4.668342,0.60773623,0.03382965
1421632193098.00,4.203858,-1.8482066,0.8298743
1421632193118.00,4.519701,-7.4419246,1.457519
1421632193139.00,6.8787956,-14.792389,2.8226802
1421632193158.00,1.4334192,-18.929785,-1.9143691
1421632193178.00,-4.08261,-19.492615,-2.75068
1421632193199.00,-5.3173923,-19.569105,-3.2844698
1421632193218.00,-5.3224816,-19.579584,-2.3882835
1421632193238.00,0.2547702,-19.58093,8.57402
1421632193308.00,1.1996055,-19.385437,2.556833
1421632193309.00,3.041076,-10.957514,1.9660116
1421632193310.00,1.8227595,-6.318211,3.7694614
1421632193322.00,1.50E-04,-3.2403116,5.512886
1421632193341.00,-3.1000533,-0.11061996,3.7333863
1421632193359.00,-6.859935,3.849994,-0.5957611
1421632193378.00,-8.817863,5.9092617,0.6556366
1421632193400.00,-7.224876,6.112539,1.0668315
1421632193419.00,-2.6032364,1.6040643,-2.8753707
1421632193439.00,2.5780888,-9.431138,-14.633719
1421632193459.00,2.9777577,-16.206799,-15.870148
1421632193480.00,1.1558963,-3.583997,9.10796
1421632193499.00,-0.988694,-8.143366,13.082794
1421632193519.00,-7.760013,-17.79275,7.5694594
1421632193539.00,-3.982618,-9.89652,4.383634
1421632193558.00,-5.777835,-6.1037073,5.2531757
1421632193620.00,-4.12602,-12.57969,10.39199
1421632193620.00,-0.61073,-17.536781,9.047485
1421632193621.00,4.104764,-19.273022,-5.3371515
1421632193642.00,7.9430823,-14.432387,-3.1490016
1421632193658.00,7.6116714,-16.6388,1.1549982
1421632193678.00,4.984185,-19.027233,-3.8872664
1421632193698.00,4.131109,-16.540005,-7.401808
1421632193718.00,3.8022432,-11.341615,-10.878478
1421632193738.00,2.1680915,-10.145303,-10.150093
1421632193760.00,-1.6067587,-5.053641,-5.5184245
1421632193778.00,-0.5869295,-2.5161178,-7.5073385
1421632193799.00,2.7388544,-0.22662872,-1.3620176
1421632193818.00,2.7662475,-0.26749375,-0.14923966
1421632193838.00,1.1548485,-0.48244676,-0.8788225
1421632193859.00,1.5461348,-4.357289,-0.6737489
1421632193878.00,5.781577,-15.08533,-0.07529343
1421632193899.00,4.10192,-18.969603,-0.82867676
1421632193982.00,-2.4740553,-19.276464,-2.9518616
1421632193983.00,-4.554429,-19.536324,-3.4126034
1421632193985.00,-2.7192452,-19.53288,-1.6477734
1421632193986.00,0.76356214,-19.574644,6.390062
1421632193999.00,2.209256,-18.048569,3.4756224
1421632194018.00,2.396217,-12.122841,1.938918
1421632194039.00,1.730701,-9.031619,2.575544
1421632194058.00,0.060773622,-4.3360333,3.2239957
1421632194079.00,-3.6682718,-0.04685257,1.1505075
1421632194098.00,-6.9250493,2.7363098,-2.4475603
1421632194118.00,-8.693622,4.2224193,-1.2067904
1421632194138.00,-7.781568,4.0421944,0.8903485
1421632194159.00,-4.355792,-0.017663268,-0.020207977
1421632194179.00,2.2650898,-6.9835777,-8.885673
1421632194198.00,2.417323,-15.180831,-16.323555
1421632194219.00,1.6953745,-11.174562,-6.456823
1421632194239.00,-1.3211527,-0.08322693,12.978761
1421632194298.00,-6.662645,-15.280225,6.252348
1421632194300.00,-5.619165,-17.586927,7.602391
1421632194301.00,-3.8121226,-6.265072,6.5541205
1421632194320.00,-4.5291314,-8.46849,8.691975
1421632194338.00,-0.726589,-16.4222,12.812306
1421632194359.00,1.2590318,-19.151474,-1.4919475
1421632194379.00,5.5048027,-16.06594,-5.4060082
1421632194399.00,6.2291465,-14.47939,5.4236712
1421632194418.00,5.4356465,-17.809664,-1.2729529
1421632194439.00,4.9817905,-19.34023,-5.1352215
1421632194458.00,4.20296,-16.585659,-7.505991
1421632194479.00,4.201912,-11.84412,-11.837983
1421632194502.00,1.9986438,-10.052496,-10.125244
1421632194519.00,-0.43888733,-4.069138,-6.5526237
1421632194548.00,1.006956,-1.5733781,-6.450237
1421632194611.00,3.734135,0.2468367,-1.3419594
1421632194612.00,2.9556038,-0.4604425,2.2700295
1421632194613.00,0.9714798,-0.52480865,0.11091934
1421632194624.00,0.91130495,-3.58265,-1.8357825
1421632194639.00,4.441264,-12.742252,-2.7027795
1421632194658.00,5.30407,-18.607056,-0.45415556
1421632194679.00,-1.9806812,-19.448606,-3.4697845
1421632194699.00,-5.326224,-19.563118,-3.8992414
1421632194719.00,-2.4492068,-19.578686,-1.343606
1421632194739.00,0.2972818,-19.580782,4.889133
1421632194759.00,3.1123278,-17.434845,4.243825
1421632194779.00,3.6562967,-10.850337,2.3379881
1421632194799.00,2.3379881,-8.060887,2.8638446
1421632194818.00,-0.6683601,-3.3446448,3.906726
1421632194839.00,-4.9672704,0.21719833,1.3817766
1421632194859.00,-8.478668,3.1986983,-3.013683
1421632194919.00,-9.483379,4.9088917,-1.0259665
1421632194920.00,-7.1702394,4.256249,0.9077124
1421632194922.00,-2.2022204,-0.35476226,-2.4080424
1421632194941.00,2.155817,-9.341175,-13.830639
1421632194958.00,2.8816576,-15.069463,-12.645404
1421632194979.00,-0.7414082,-7.465126,6.706504
1421632194999.00,-4.987628,-12.925322,10.168654
1421632195021.00,-5.9637485,-16.282091,6.5873513
1421632195040.00,-3.997138,-7.7332187,6.5701375
1421632195059.00,-5.802234,-6.427933,6.7788033
1421632195079.00,-3.9279816,-13.522879,11.567795
