time_milisec,ax,ay,az
1421362509006.00,-1.0488689,2.689607,9.452543
1421362509024.00,-1.1243119,2.8916867,9.57918
1421362509045.00,-1.2476555,3.0048513,9.860894
1421362509058.00,-1.2045451,3.0085936,9.667497
1421362509078.00,-1.1201206,3.138673,9.472602
1421362509098.00,-1.10605,3.206033,9.433084
1421362509119.00,-1.1103909,3.2102244,9.29552
1421362509139.00,-1.2346326,3.3432975,9.274863
1421362509158.00,-1.3219011,3.429668,9.249266
1421362509179.00,-1.1587404,3.1808853,9.118887
1421362509199.00,-1.1300001,3.1918125,9.024284
1421362509219.00,-1.201252,3.1573842,9.034014
1421362509239.00,-1.1668236,3.3302746,9.169183
1421362509258.00,-1.1091934,3.3775764,9.298663
1421362509280.00,-1.1746074,3.1124775,9.304651
1421362509298.00,-1.0006691,3.1388228,9.566756
1421362509318.00,-1.0361453,3.1997461,9.571845
1421362509339.00,-1.1002121,3.2260914,9.626482
1421362509358.00,-1.1428734,3.3852105,9.701775
1421362509379.00,-1.176703,3.20274,9.670939
1421362509401.00,-1.248853,3.0404773,9.453442
1421362509418.00,-1.2319381,3.0310469,9.4860735
1421362509438.00,-1.1596385,3.1579828,9.441167
1421362509459.00,-1.1831397,3.206931,9.327404
1421362509478.00,-0.9898915,3.2133677,9.464369
1421362509498.00,-1.0961705,3.1922617,9.314381
1421362509518.00,-1.0488689,3.242108,9.165291
1421362509538.00,-0.9837543,3.1494508,9.124725
1421362509558.00,-1.1288027,3.2895594,9.161249
1421362509579.00,-1.1859838,3.306025,9.3630295
1421362509599.00,-1.1557466,3.325784,9.4012
1421362509618.00,-1.108894,3.235821,9.557026
1421362509638.00,-1.1253598,3.219505,9.506282
1421362509658.00,-1.1490107,3.3718882,9.439072
1421362509679.00,-1.1138338,3.2760873,9.427995
1421362509699.00,-0.99468154,3.19301,9.395961
1421362509719.00,-1.065185,3.131488,9.375304
1421362509739.00,-0.88196594,3.094964,9.419163
1421362509759.00,-0.9744736,3.0832882,9.349708
1421362509779.00,-1.0265652,3.118615,9.323662
1421362509799.00,-0.81789917,3.1596296,9.3928175
1421362509819.00,-0.94303894,3.194058,9.445658
1421362509839.00,-0.8640033,3.1244526,9.428294
1421362509859.00,-0.8322693,3.0307474,9.288934
1421362509879.00,-0.8490344,3.069517,9.197923
1421362509900.00,-0.9485774,3.1187644,9.226214
1421362509919.00,-0.92941725,3.2287858,9.342223
1421362509940.00,-0.84768724,3.170407,9.480236
1421362509960.00,-0.9261241,3.0741572,9.473499
1421362509979.00,-0.9976753,3.0879285,9.392518
1421362510000.00,-0.86355424,3.27489,9.427096
1421362510019.00,-0.9349558,3.2123199,9.494756
1421362510039.00,-0.98255676,3.1009514,9.428294
1421362510060.00,-0.94932586,3.1043944,9.45419
1421362510080.00,-1.074765,3.2142658,9.470057
1421362510099.00,-0.9940828,3.0463152,9.537566
1421362510120.00,-0.7911049,3.0768516,9.397907
1421362510140.00,-0.8602611,3.0620325,9.3928175
1421362510159.00,-0.8919951,3.016078,9.452244
1421362510179.00,-0.91863966,3.1082864,9.360635
1421362510202.00,-0.9333092,3.056494,9.5175085
1421362510218.00,-0.8240364,3.210823,9.413475
1421362510238.00,-0.8605605,3.1620245,9.472901
1421362510258.00,-0.7658075,3.0650263,9.368419
1421362510279.00,-0.99183744,3.1109807,9.364527
1421362510299.00,-0.95621157,3.2244446,9.354946
1421362510320.00,-1.0157876,3.2078292,9.488917
1421362510339.00,-0.93600357,3.2006443,9.447903
1421362510360.00,-1.0006691,2.9847932,9.51167
1421362510380.00,-0.9738748,3.0999038,9.441766
1421362510399.00,-0.95636123,3.2799792,9.520502
1421362510419.00,-0.96160036,3.065176,9.411079
1421362510440.00,-0.93450665,3.1347811,9.4494
1421362510459.00,-0.8716374,3.1298416,9.616452
1421362510480.00,-0.79963714,3.1952555,9.539962
1421362510499.00,-0.84080154,2.9521608,9.4612255
1421362510519.00,-0.88855225,2.9353957,9.336235
1421362510540.00,-0.8893007,3.0145812,9.320518
1421362510559.00,-0.9659413,2.9668305,9.279353
1421362510579.00,-0.8930429,2.9797037,9.422905
1421362510599.00,-0.7994875,3.1142738,9.426348
1421362510619.00,-0.92043597,3.201243,9.612411
1421362510639.00,-0.90022796,3.19301,9.461824
1421362510659.00,-0.8547226,3.201243,9.397758
1421362510679.00,-0.9443861,2.911296,9.469159
1421362510699.00,-0.92118436,2.9936247,9.412427
1421362510719.00,-0.90756273,3.0451176,9.381591
1421362510739.00,-0.9187894,3.0067973,9.3911705
1421362510759.00,-0.94079363,3.090174,9.414672
1421362510779.00,-0.9672885,3.1109807,9.4491005
1421362510800.00,-0.9395961,3.1269975,9.528436
1421362510819.00,-0.9207353,3.1380744,9.445358
1421362510844.00,-0.92807007,3.1609766,9.354796
1421362510859.00,-0.97731763,3.1624737,9.350156
1421362510889.00,-1.0353969,3.1657667,9.4976
1421362510909.00,-0.9602531,3.1737003,9.558823
1421362510919.00,-0.920885,3.1298416,9.442964
1421362510939.00,-0.9789642,3.0047016,9.31992
1421362510960.00,-0.9446855,3.2003448,9.293425
1421362510979.00,-1.0062076,3.1114297,9.42515
1421362510999.00,-0.9020242,3.01024,9.333241
1421362511021.00,-0.90561676,3.2157629,9.475595
1421362511040.00,-0.9131012,3.2591724,9.519005
1421362511059.00,-1.0044113,3.1213093,9.466165
1421362511080.00,-0.9671388,2.9957204,9.517209
1421362511099.00,-0.98570025,3.1837294,9.446556
1421362511122.00,-1.060844,3.1115794,9.436377
1421362511140.00,-0.89962924,3.1513968,9.405991
1421362511159.00,-0.97118044,3.1096334,9.382489
1421362511179.00,-0.8659493,3.0786479,9.49715
1421362511199.00,-1.0243199,3.1708562,9.528585
1421362511219.00,-0.9897418,3.2618668,9.514664
1421362511240.00,-0.9277707,3.095413,9.46392
1421362511260.00,-0.9036708,3.0549972,9.395512
1421362511279.00,-0.92821974,3.214715,9.378148
1421362511300.00,-0.89962924,3.1015503,9.445658
1421362511320.00,-0.93256074,3.1753469,9.518107
1421362511342.00,-1.0344987,3.0931678,9.460776
1421362511361.00,-0.94812834,3.134482,9.368568
1421362511382.00,-0.92148376,3.1633718,9.482182
1421362511400.00,-0.9357042,3.0978081,9.330248
1421362511418.00,-0.91010743,3.0904734,9.304502
1421362511439.00,-0.9428893,3.2597713,9.328152
1421362511459.00,-0.93615323,3.1120286,9.363928
1421362511479.00,-0.8479866,3.1066396,9.41078
1421362511500.00,-0.93450665,3.1653178,9.425599
1421362511520.00,-1.0645862,3.0707145,9.411678
1421362511540.00,-0.8704399,3.1337333,9.295071
1421362511560.00,-0.902623,3.0774505,9.55538
1421362511580.00,-0.89618635,3.1521451,9.586814
1421362511599.00,-0.98794556,3.1281948,9.416019
1421362511619.00,-1.0529104,3.1240036,9.323512
1421362511639.00,-1.047821,3.1579828,9.342073
1421362511659.00,-1.0967692,3.050656,9.48787
1421362511679.00,-1.0226734,3.0654752,9.56481
1421362511699.00,-1.008902,3.1165192,9.516311
1421362511719.00,-0.963696,3.1485527,9.47799
1421362511739.00,-0.90337145,3.1597793,9.423354
1421362511760.00,-0.9425899,3.0798454,9.331146
1421362511780.00,-0.9821077,3.104993,9.341175
1421362511800.00,-0.96040285,3.2403116,9.499994
1421362511820.00,-1.0047107,3.2084281,9.583671
1421362511840.00,-0.9318123,3.077151,9.347462
1421362511860.00,-0.9753717,3.0205686,9.327254
1421362511880.00,-1.0876383,3.1659164,9.451196
1421362511899.00,-0.89334226,3.2208521,9.394764
1421362511920.00,-0.9520203,3.0892758,9.4176655
1421362511940.00,-0.93286014,3.066523,9.49221
1421362511960.00,-0.864602,2.9892838,9.404793
1421362511980.00,-0.87433183,3.1585817,9.439671
1421362512000.00,-0.86220706,3.129093,9.291029
1421362512019.00,-0.89229447,3.1507978,9.289533
1421362512041.00,-0.98420334,3.0355375,9.473649
1421362512065.00,-1.0309062,3.0621822,9.345666
1421362512080.00,-1.0258168,3.1780412,9.447903
1421362512099.00,-1.0184821,3.1653178,9.447304
1421362512122.00,-0.9952803,3.2606695,9.465267
1421362512141.00,-1.0115963,3.1660662,9.398954
1421362512159.00,-1.0014175,3.077151,9.375604
1421362512179.00,-0.9812096,3.128045,9.519005
1421362512199.00,-0.9181906,3.0778995,9.260642
1421362512219.00,-0.90471864,3.1220577,9.342671
1421362512239.00,-0.95725936,3.2181578,9.245823
1421362512259.00,-0.9505234,3.1708562,9.465866
1421362512282.00,-0.9554631,3.100203,9.395811
1421362512299.00,-0.8577164,3.1488519,9.506132
1421362512319.00,-0.8095166,3.2112722,9.437125
1421362512339.00,-0.97477293,3.133883,9.479038
1421362512359.00,-0.984353,3.131937,9.3751545
1421362512379.00,-0.97477293,3.1903157,9.375005
1421362512399.00,-1.0895842,3.1645691,9.397458
1421362512418.00,-1.0234218,3.1856754,9.303004
1421362512438.00,-1.0590477,3.1490016,9.317973
1421362512459.00,-0.86609894,3.2049851,9.400751
1421362512479.00,-1.0368937,3.1455588,9.423953
1421362512499.00,-0.9644444,3.152594,9.530381
1421362512519.00,-1.1301498,3.2293844,9.466165
1421362512539.00,-1.0792557,3.1653178,9.474547
1421362512559.00,-1.0559043,3.1597793,9.443861
1421362512579.00,-0.9195378,3.1828313,9.424402
1421362512599.00,-1.1668236,3.302732,9.50224
1421362512619.00,-0.9707314,3.3013847,9.340576
1421362512638.00,-1.0126442,3.1907647,9.313931
1421362512659.00,-1.131048,3.239264,9.527687
1421362512681.00,-0.9580078,3.0867312,9.56945
1421362512700.00,-1.0412347,3.2422576,9.462572
1421362512718.00,-0.9171428,3.2876134,9.438922
1421362512741.00,-0.94827807,3.234923,9.317374
1421362512759.00,-1.019979,3.1692095,9.316028
1421362512780.00,-1.0924283,3.2906072,9.371412
1421362512800.00,-0.9690848,3.2400124,9.375005
1421362512820.00,-1.0484198,3.147804,9.434581
1421362512839.00,-0.9514215,3.167563,9.539213
1421362512861.00,-0.99812436,3.1216085,9.402996
1421362512881.00,-0.9687854,3.0915213,9.4297905
1421362512904.00,-1.0458751,3.0716126,9.34836
1421362512923.00,-1.0389894,3.2486944,9.399404
1421362512940.00,-1.0096505,3.1365774,9.510773
1421362512960.00,-1.0138417,3.1870224,9.464219
1421362512980.00,-0.9234297,3.129093,9.380992
1421362513000.00,-1.1391312,3.198249,9.353001
1421362513024.00,-1.0939251,3.090623,9.359886
1421362513041.00,-0.993484,3.1870224,9.413026
1421362513060.00,-0.9970766,3.1190639,9.368119
1421362513080.00,-1.11084,3.0826895,9.389674
1421362513100.00,-0.95381653,3.1409185,9.312136
1421362513122.00,-1.0831475,3.1349308,9.439969
1421362513143.00,-1.0551558,3.268154,9.437275
1421362513160.00,-0.9966275,3.2439044,9.518107
1421362513179.00,-1.0479708,3.2003448,9.39641
1421362513200.00,-1.093476,3.2678545,9.430689
1421362513220.00,-0.9659413,3.1838791,9.3679695
1421362513242.00,-1.0506651,3.148403,9.492062
1421362513266.00,-1.0547067,3.14975,9.46347
1421362513283.00,-0.9599538,3.0302985,9.357192
1421362513299.00,-0.98944247,3.0928683,9.433233
1421362513319.00,-1.1099418,3.278183,9.4193125
1421362513339.00,-1.0041119,3.0422735,9.456285
1421362513359.00,-1.1198213,3.1504984,9.620344
1421362513379.00,-1.0807526,3.137775,9.472003
1421362513399.00,-0.99453187,3.1708562,9.321416
1421362513419.00,-0.9821077,3.1900163,9.44416
1421362513439.00,-1.0009685,3.233426,9.417366
1421362513460.00,-1.0674303,3.1190639,9.474847
1421362513479.00,-1.090632,3.2217503,9.433533
1421362513499.00,-0.9979747,3.2317796,9.385034
1421362513519.00,-1.1204201,3.1073883,9.4419155
1421362513547.00,-1.0238708,3.239713,9.306597
1421362513559.00,-1.0849439,3.1817834,9.406439
1421362513581.00,-1.0895842,3.1498997,9.33429
1421362513599.00,-1.1341914,3.0808933,9.428892
1421362513619.00,-1.0341994,3.129991,9.323512
1421362513639.00,-1.0529104,3.157534,9.43009
1421362513659.00,-1.108894,3.1796877,9.34357
1421362513682.00,-1.054108,3.148403,9.477691
1421362513709.00,-0.977617,3.170407,9.414073
1421362513719.00,-1.0133927,3.233426,9.374556
1421362513740.00,-1.1424243,3.1557376,9.30061
1421362513759.00,-1.1421249,3.1629226,9.356593
1421362513779.00,-1.1874806,3.1178663,9.389674
1421362513800.00,-1.0677296,3.2879128,9.473351
1421362513819.00,-1.1091934,3.3293765,9.388177
1421362513852.00,-1.1410772,3.1883698,9.420061
1421362513880.00,-1.0888357,3.1409185,9.48817
1421362513880.00,-0.96145064,3.134482,9.473051
1421362513899.00,-1.0147399,3.0277538,9.402397
1421362513925.00,-0.96040285,3.1398706,9.3244095
1421362513940.00,-0.97372514,3.0213172,9.286388
1421362513959.00,-0.9982741,3.0542486,9.322464
1421362513979.00,-1.1467652,3.1735506,9.182654
1421362513999.00,-1.0535092,3.035837,9.283245
1421362514028.00,-1.1611354,3.1262488,9.194929
1421362514049.00,-1.2763957,3.098856,9.341774
1421362514059.00,-1.2677138,3.2103739,9.48323
1421362514080.00,-1.4976356,3.27489,9.427096
1421362514105.00,-1.5736775,3.3467405,9.528136
1421362514119.00,-1.7308507,3.4655933,9.574241
1421362514140.00,-1.746568,3.5193315,9.3771
1421362514159.00,-1.832639,3.4428406,9.288035
1421362514187.00,-1.6851956,3.4838552,9.22337
1421362514199.00,-1.8182689,3.629652,9.15571
1421362514219.00,-1.7542021,3.800896,9.211544
1421362514240.00,-1.7443227,3.853287,9.169931
1421362514260.00,-1.9568807,3.753295,9.141191
1421362514279.00,-1.8968555,3.7356317,9.04524
1421362514299.00,-1.7521064,3.742218,9.024733
1421362514319.00,-1.7515078,3.766767,8.934919
1421362514344.00,-1.680705,3.8681061,9.207054
1421362514376.00,-1.891317,4.1709266,9.17532
1421362514383.00,-1.745071,3.263214,9.808353
1421362514411.00,-1.8027012,3.6015105,9.986632
1421362514420.00,-1.7717156,3.8236487,9.474398
1421362514462.00,-1.7696201,3.7757483,9.177416
1421362514470.00,-1.7310004,3.4615517,8.8879175
1421362514480.00,-1.6151413,3.3867073,8.7517
1421362514499.00,-1.7232165,3.5338514,8.822055
1421362514519.00,-1.6124469,3.5947747,9.067394
1421362514539.00,-1.6274158,3.5958223,9.322614
1421362514559.00,-1.7438736,3.6802468,9.331146
1421362514581.00,-1.7926722,3.713777,9.358239
1421362514599.00,-1.8317409,3.6766543,9.173524
1421362514619.00,-1.6551082,3.8166132,9.129814
1421362514640.00,-1.7521064,3.7098854,9.1025715
1421362514659.00,-1.6569045,3.591781,9.176068
1421362514679.00,-1.6369958,3.5372941,9.072933
1421362514700.00,-1.6856446,3.6783009,9.273366
1421362514720.00,-1.7203724,3.6317477,9.288485
1421362514739.00,-1.6305592,3.5425332,9.50224
1421362514760.00,-1.5164964,3.378175,9.4739485
1421362514781.00,-1.4591657,3.4167948,9.539213
1421362514800.00,-1.4299763,3.3871565,9.499546
1421362514821.00,-1.3331277,3.376229,9.340876
1421362514840.00,-1.2692107,3.1000533,9.221574
1421362514860.00,-1.2015513,3.0162277,9.137149
1421362514881.00,-1.2111315,3.068469,8.969797
1421362514900.00,-1.1226654,3.129093,9.191636
1421362514920.00,-1.1038046,3.2241454,9.270223
1421362514944.00,-1.1662248,3.1543903,9.506282
1421362514960.00,-1.1482621,3.049758,9.703721
1421362514981.00,-1.0991642,3.1678624,9.547297
1421362515000.00,-1.0577005,3.114723,9.403745
1421362515020.00,-1.0553055,3.2063324,9.287886
1421362515041.00,-1.1500584,3.228636,9.152267
1421362515059.00,-1.1594888,3.2504907,9.139395
1421362515080.00,-1.1705658,3.2771351,9.308693
1421362515099.00,-1.3105247,3.3633559,9.475296
1421362515119.00,-1.4064752,3.2530353,9.50209
1421362515139.00,-1.2225078,3.4814603,9.581575
1421362515159.00,-1.3061838,3.3489857,9.48802
1421362515179.00,-1.2298425,3.1581326,8.124954
1421362515199.00,-1.5599061,3.1129267,8.525671
1421362515219.00,-1.7586927,3.7625756,10.704091
1421362515250.00,-1.4787749,3.3404534,10.5322485
1421362515286.00,-1.1008109,3.1014006,9.398805
1421362515287.00,-1.1349399,3.1431637,9.102721
1421362515318.00,-1.239722,3.3648527,9.157956
1421362515321.00,-1.2522959,3.259472,9.294172
1421362515339.00,-1.0159373,3.1876214,9.470655
1421362515360.00,-1.045426,3.1169682,9.633517
1421362515379.00,-1.1689192,2.9298573,9.579779
1421362515399.00,-1.1579919,3.0952635,9.360635
1421362515419.00,-1.3304334,3.2659085,9.337283
1421362515439.00,-1.2943584,3.267555,9.422007
1421362515461.00,-1.2960049,3.0746064,9.4193125
1421362515479.00,-1.2400213,3.0663733,9.319021
1421362515499.00,-1.2998968,3.1943574,9.265882
1421362515520.00,-1.2888199,3.3867073,9.35779
1421362515539.00,-1.2958553,3.2183075,9.384285
1421362515559.00,-1.3175601,3.1220577,9.332343
1421362515580.00,-1.2259506,3.179089,9.217532
1421362515599.00,-1.2121793,3.2428565,9.415271
1421362515619.00,-1.2364289,3.1057415,9.360036
1421362515666.00,-1.1044034,3.1647189,9.406738
1421362515667.00,-1.0773097,3.0494585,9.330398
1421362515693.00,-1.0819501,3.2540832,9.417068
1421362515720.00,-1.1226654,3.1436129,9.398057
1421362515721.00,-1.1216176,3.1515462,9.421408
1421362515752.00,-1.1464659,3.146457,9.364826
1421362515759.00,-1.1708652,3.1145732,9.398655
1421362515782.00,-1.225801,3.1498997,9.240584
1421362515814.00,-1.3156142,3.1951058,9.362281
1421362515831.00,-1.4507831,3.389252,9.51167
1421362515848.00,-1.5935861,3.50077,9.35779
1421362515869.00,-1.631607,3.3673975,9.26184
1421362515879.00,-1.7098943,3.3870068,9.488468
1421362515902.00,-1.7643809,3.4938843,9.41557
1421362515921.00,-1.7082477,3.549868,9.483829
1421362515939.00,-1.7625847,3.591781,9.269624
1421362515959.00,-1.7371376,3.5666332,9.273516
1421362515981.00,-1.6908838,3.497926,8.394693
1421362516002.00,-1.8896704,3.7773948,9.889035
1421362516024.00,-1.6988173,3.5323544,9.659413
1421362516041.00,-1.4648538,3.372337,9.174122
1421362516073.00,-1.4058765,3.4608033,8.97324
1421362516096.00,-1.5373032,3.3778756,9.089548
1421362516100.00,-1.3915063,3.186873,9.231453
1421362516119.00,-1.4480886,3.3153057,9.369316
1421362516141.00,-1.4266832,3.2660582,9.528585
1421362516159.00,-1.3314812,3.206033,9.531878
1421362516180.00,-1.3100756,3.1364279,9.49221
1421362516200.00,-1.2813355,3.153642,9.372759
1421362516219.00,-1.4509327,3.2602203,9.400601
1421362516241.00,-1.3766872,3.2624657,9.330847
1421362516259.00,-1.3738431,3.2355218,9.232202
1421362516279.00,-1.4723382,3.3751812,9.07937
1421362516301.00,-1.5124549,3.4356556,9.144184
1421362516320.00,-1.4054275,3.2986903,9.304502
1421362516339.00,-1.355581,3.335813,9.3486595
1421362516361.00,-1.3519886,3.2443533,9.231752
1421362516379.00,-1.5849042,3.307971,9.356144
1421362516399.00,-1.529669,3.3028817,9.286838
1421362516420.00,-1.4177018,3.3203952,9.349109
1421362516439.00,-1.3477973,3.2253428,9.451795
1421362516462.00,-1.2213103,3.3340168,9.307196
1421362516481.00,-1.3903089,3.2621663,9.435629
1421362516500.00,-1.2217593,3.2211516,9.350605
1421362516520.00,-1.2786411,3.1828313,9.488468
1421362516539.00,-1.3304334,3.2153137,9.385034
1421362516560.00,-1.1864328,3.1051428,9.325607
1421362516581.00,-1.3289365,3.0024564,9.294771
1421362516600.00,-1.25514,3.181484,9.361981
1421362516619.00,-1.4331198,3.1870224,9.330398
1421362516639.00,-1.30319,3.3432975,9.29552
1421362516659.00,-1.3486954,3.3726366,9.2521105
1421362516680.00,-1.3439053,3.4287698,9.345816
1421362516700.00,-1.3063334,3.3482373,9.315429
1421362516721.00,-1.3274395,3.348387,9.358389
1421362516740.00,-1.2030482,3.301235,9.467812
1421362516760.00,-1.2880714,3.3456926,9.345217
1421362516780.00,-1.2271482,3.2323782,9.51661
1421362516802.00,-1.2027489,3.2554302,9.501042
1421362516820.00,-0.93989545,3.1409185,9.388476
1421362516839.00,-0.9406439,3.1383736,9.443711
1421362516859.00,-1.1548485,3.1183155,9.349109
1421362516881.00,-1.0596465,3.036735,9.450298
1421362516899.00,-1.0803035,3.0889764,9.391022
1421362516919.00,-1.0159373,2.9536579,9.431587
1421362516939.00,-1.1496093,2.9609926,9.320667
1421362516959.00,-1.2138258,3.121459,9.326506
1421362516980.00,-1.2165202,3.2796798,9.334589
1421362517000.00,-1.0728191,3.133883,9.339977
1421362517021.00,-1.207539,3.3220417,9.439521
1421362517039.00,-1.1302996,3.2442036,9.479637
1421362517060.00,-1.1768527,3.1678624,9.491313
1421362517079.00,-1.2168196,3.199297,9.370813
1421362517100.00,-1.1633807,3.0798454,9.376351
1421362517119.00,-1.1302996,3.1262488,9.31498
1421362517140.00,-1.1470647,3.0879285,9.416169
1421362517159.00,-1.0020163,3.098856,9.435329
1421362517180.00,-1.0343491,3.095413,9.520203
1421362517199.00,-1.0662328,3.0373337,9.574839
1421362517219.00,-1.2246034,3.1621742,9.483978
1421362517241.00,-1.1681708,3.0572424,9.298963
1421362517260.00,-1.1015593,3.1043944,9.438473
1421362517282.00,-1.0030642,3.1585817,9.4012
1421362517301.00,-1.1472144,3.1210098,9.405991
1421362517320.00,-1.011297,3.1856754,9.411079
1421362517345.00,-1.2145743,3.032843,9.42051
1421362517360.00,-1.1210189,3.0379326,9.414822
1421362517380.00,-1.1666739,3.1196625,9.350904
1421362517400.00,-1.1343411,2.988685,9.484278
1421362517419.00,-0.99049026,3.0666728,9.425449
1421362517440.00,-1.1801459,3.1951058,9.507179
1421362517459.00,-1.1702664,3.2374678,9.563164
1421362517479.00,-1.2033477,3.1165192,9.538914
1421362517500.00,-1.1208692,3.2635136,9.467512
1421362517520.00,-1.0785072,3.3019836,9.218131
1421362517540.00,-1.1529025,3.1609766,9.214539
1421362517560.00,-1.1523038,3.1163695,9.368119
1421362517580.00,-1.2139755,3.0765524,9.446856
1421362517600.00,-1.1509566,3.2217503,9.512419
1421362517621.00,-1.0786569,3.3476386,9.467362
1421362517641.00,-1.0250684,3.2747402,9.428892
1421362517660.00,-1.1541001,3.280129,9.510024
1421362517680.00,-1.1180251,3.123854,9.398954
1421362517700.00,-1.1374846,3.026706,9.475296
1421362517719.00,-1.1253598,3.065176,9.415421
1421362517740.00,-1.1258088,2.9648845,9.323811
1421362517761.00,-1.0761123,3.1388228,9.352701
1421362517781.00,-1.0918295,3.2057335,9.345965
1421362517802.00,-1.1819421,3.189717,9.358838
1421362517823.00,-1.2629237,3.3191977,9.3944645
1421362517841.00,-1.2261003,3.1880703,9.33399
1421362517860.00,-1.1951147,3.2597713,9.449999
1421362517880.00,-0.97237796,3.1931598,9.440418
1421362517900.00,-1.1103909,3.1534922,9.41063
1421362517921.00,-1.1264076,3.302732,9.391022
1421362517940.00,-1.0551558,3.1145732,9.553433
1421362517960.00,-1.1168275,3.1522949,9.403745
1421362517981.00,-1.1057506,3.0720615,9.460477
1421362518000.00,-1.0794053,3.1461575,9.426048
1421362518023.00,-1.0244696,3.0635293,9.517808
1421362518082.00,-1.1828402,3.1855257,9.417965
1421362518083.00,-1.2584331,3.1855257,9.46886
1421362518083.00,-1.2452605,3.1413674,9.553433
1421362518113.00,-1.1294014,3.3461416,9.452244
1421362518119.00,-1.1416758,3.2620165,9.372311
1421362518151.00,-1.2708572,3.1663656,9.299861
1421362518183.00,-1.0321038,3.0648766,9.312883
1421362518184.00,-1.1096425,3.2439044,9.264684
1421362518200.00,-1.2253518,3.1900163,9.426198
1421362518234.00,-1.2847782,3.1481035,9.489816
1421362518247.00,-1.1642789,3.187771,9.41557
1421362518278.00,-1.185834,3.2519875,9.35315
1421362518280.00,-1.2181668,3.2859669,9.322763
1421362518317.00,-1.1732602,3.0991552,9.535621
1421362518320.00,-1.2415183,3.1680121,9.474098
1421362518353.00,-1.1855347,3.2401621,9.297466
1421362518365.00,-1.0909314,3.0626311,9.352102
1421362518409.00,-1.1624826,3.078199,9.341025
1421362518413.00,-1.1647279,3.2389646,9.341175
1421362518422.00,-1.18778,3.2602203,9.343869
1421362518448.00,-0.97477293,3.3018339,9.043444
1421362518460.00,-1.1099418,3.047363,8.892109
1421362518488.00,-1.434467,3.2885115,9.191037
1421362518520.00,-1.5516733,3.7125797,9.442365
1421362518520.00,-1.3061838,4.1568556,8.577313
1421362518548.00,-1.5968792,3.9474413,8.459508
1421362518560.00,-1.7781523,3.74611,9.172925
1421362518585.00,-1.5988252,4.038901,9.935739
1421362518620.00,-1.1035053,4.060606,9.595346
1421362518622.00,-0.66955763,4.166735,8.466394
1421362518662.00,-0.6939569,4.3584867,7.8219843
1421362518663.00,-0.970432,4.083359,7.923473
1421362518679.00,-0.77613604,3.9291792,9.009166
1421362518713.00,-0.38065842,3.4486785,9.531579
1421362518719.00,-0.3686833,2.9548554,8.968001
1421362518865.00,-0.690065,2.4803421,7.9900846
1421362518866.00,-0.76475966,2.9855416,8.255782
1421362518866.00,-0.12409195,3.4667907,9.059461
1421362518867.00,0.3156935,2.6740394,10.023755
1421362518868.00,0.067060545,2.5724006,10.021061
1421362518868.00,-0.49546966,3.2415092,11.211086
1421362518869.00,-1.6096028,5.132377,10.794502
1421362518887.00,-1.8169217,4.8163843,11.152259
1421362518903.00,-1.3698015,1.4958394,12.535981
1421362518949.00,-1.3085788,-2.4119344,13.239967
1421362518950.00,-1.6920813,-3.3894017,13.848751
1421362518959.00,-1.0783576,-1.5352075,12.086466
1421362518980.00,-0.5284012,0.31030473,10.411899
1421362519000.00,-0.63587767,0.7189549,9.840836
1421362519020.00,-0.80502594,0.703537,10.434651
1421362519040.00,-1.1445199,-0.43454635,11.07487
1421362519061.00,-0.5204677,-0.5677693,10.830129
1421362519079.00,0.30820906,0.44218048,10.806028
1421362519208.00,0.81280977,0.6011499,11.896661
1421362519209.00,0.7792795,0.6780899,14.106665
1421362519210.00,0.76535845,1.7265097,14.847176
1421362519211.00,1.3422588,-0.25372237,12.724739
1421362519211.00,0.43873763,0.6493497,12.070599
1421362519212.00,0.45535308,0.12633727,13.163626
1421362519244.00,-0.52316207,0.38365218,15.082636
1421362519245.00,-0.48768586,0.040715333,14.764398
1421362519288.00,0.54621416,-0.37018022,13.056449
1421362519289.00,1.2817845,-0.43304947,11.513008
1421362519300.00,0.6129753,-0.7113208,10.564431
1421362519320.00,0.92821974,-0.16555573,11.070978
1421362519340.00,0.33949402,0.35416353,12.240496
1421362519361.00,-0.004191284,0.73751634,11.7809515
1421362519381.00,-0.14250366,0.6512956,11.761791
1421362519832.00,-0.31539413,0.7282356,11.726464
1421362519832.00,-0.3528163,0.41209304,11.44969
1421362519833.00,-0.22917344,-0.043709107,10.299183
1421362519834.00,-0.3821553,-0.3222798,9.543554
1421362519834.00,-0.1857637,-0.07649094,9.09868
1421362519835.00,0.21719833,0.36284545,8.595276
1421362519836.00,-0.13501923,0.9039702,8.41535
1421362519836.00,-0.7129674,1.3943504,9.07413
1421362519837.00,-1.3262421,1.3177098,8.638087
1421362519837.00,-1.1003618,0.57570285,8.35787
1421362519838.00,-0.7747888,-0.60010207,8.265661
1421362519838.00,-0.36419266,-0.5864804,8.562195
1421362519839.00,-0.5957611,0.58198977,6.928492
1421362519840.00,-0.012424164,1.2142749,9.817036
1421362519841.00,0.36449203,1.5814613,9.672436
1421362519842.00,1.0665321,2.296674,8.551717
1421362519842.00,-0.007634125,3.3792229,4.7127995
1421362519843.00,-1.475332,3.8089793,3.8490958
1421362519843.00,-1.8461109,3.6848872,6.237529
1421362519844.00,-3.323838,2.6351202,10.891501
1421362519845.00,0.20357665,1.8315911,14.5466
1421362519845.00,0.88181627,2.8520193,11.653866
1421362519845.00,-0.642464,3.9835162,8.491392
1421362519899.00,-2.99587,6.525081,5.5486617
1421362519900.00,-2.19758,5.672454,5.1910553
1421362519914.00,-1.781146,4.97236,8.306676
1421362519973.00,-2.7490335,4.8623385,12.182716
1421362519974.00,-0.7803273,2.3608904,9.359437
1421362519974.00,0.3544629,3.2886612,10.090068
1421362519994.00,-0.3171904,3.850892,7.112759
1421362520000.00,1.1527529,2.2815554,7.381001
1421362520036.00,2.488575,1.2660671,8.677455
1421362520041.00,1.4217435,0.9201366,7.3980656
1421362520060.00,0.5141808,0.7364685,8.865165
1421362520080.00,0.32452515,0.33365616,6.9048414
1421362520100.00,0.086819455,0.51537824,6.0040145
1421362520120.00,0.5233118,1.2573853,5.759124
1421362520142.00,0.9066646,1.7447717,5.2932925
1421362520160.00,2.1243823,0.32856673,4.4821296
1421362520180.00,0.45625123,0.74125856,5.2343154
1421362520200.00,1.7760566,-0.22528152,5.5054016
1421362520220.00,3.6682718,0.16675323,6.4355674
1421362520244.00,4.3589354,0.23950195,7.2817574
1421362520263.00,3.1392717,-1.4588662,7.3140903
1421362520282.00,4.7056146,-1.7786014,6.7277594
1421362520301.00,8.06433,-1.526825,9.011111
1421362520321.00,10.018966,-1.1223661,10.144704
1421362520341.00,9.113948,-1.9963984,9.583371
1421362520423.00,10.408456,-2.7117608,10.840307
1421362520423.00,12.783566,-2.0302281,5.210215
1421362520424.00,13.563595,-0.95755875,2.9235704
1421362520424.00,11.840977,-1.1750565,4.3363323
1421362520449.00,11.022629,-3.1461575,4.2700205
1421362520460.00,10.860216,-3.9525306,5.619015
1421362520480.00,11.107203,-4.8523097,3.5405874
1421362520500.00,14.7632,-4.90021,-2.074087
1421362520520.00,16.783699,-4.8117437,-1.4959891
1421362520541.00,13.689333,-5.304519,-0.40700364
1421362520560.00,11.289373,-7.4366856,-0.7608678
1421362520580.00,9.0462885,-8.4222355,-0.21674927
1421362520600.00,7.295529,-8.44873,0.7472461
1421362520621.00,6.938222,-7.927365,-0.60728717
1421362520647.00,7.2308636,-6.5786695,-1.2274475
1421362520774.00,6.9250493,-3.9603145,0.86729646
1421362520775.00,6.768625,-2.853067,1.5362554
1421362520775.00,3.9133122,-4.3257046,1.8321899
1421362520775.00,0.900677,-5.4926777,1.6143929
1421362520776.00,0.2612068,-3.6396813,0.74889266
1421362520776.00,0.26704466,-2.3882835,0.09220825
1421362520783.00,0.44128236,3.0964608,-4.5741878
1421362520800.00,3.0614338,-5.9133034,-0.6147716
1421362520825.00,3.0960119,-13.467793,6.0776615
1421362520844.00,8.068821,-12.884157,10.31969
1421362520875.00,10.560689,-7.6380167,0.6647676
1421362520889.00,11.843521,-8.65575,-7.913594
1421362520901.00,11.242072,-17.492924,-2.8099566
1421362521088.00,9.193731,-12.877721,1.0532098
1421362521089.00,9.610914,-13.172158,0.7345226
1421362521090.00,7.7061253,-12.693154,1.5355068
1421362521090.00,6.8111362,-12.376413,1.6473243
1421362521091.00,7.821535,-10.032138,3.5140924
1421362521091.00,5.076843,-8.2848215,4.1366477
1421362521092.00,9.522897,-7.0379148,3.0256581
1421362521092.00,3.2621663,-2.9817994,3.5564544
1421362521093.00,-5.85732,-0.03742218,-1.3579761
1421362521106.00,-3.767216,2.759362,1.8718574
1421362521125.00,0.44023454,-2.9292586,0.86669767
1421362521144.00,3.3688943,-3.4352064,0.54890853
1421362521162.00,4.0709343,-7.1410503,2.7110124
1421362521181.00,4.097579,-7.2925353,5.665119
1421362521201.00,5.2885027,-9.172925,9.045839
1421362521225.00,7.259903,-10.000105,7.095395
1421362521240.00,7.853419,-6.228248,4.455485
1421362521260.00,5.7318807,-7.2067633,4.4002495
1421362521281.00,5.955815,-9.669742,7.133566
1421362521303.00,7.3452253,-9.28624,3.6714153
1421362521320.00,5.261259,-9.07413,2.2519171
1421362521341.00,3.551365,-10.107731,2.2896388
1421362521445.00,4.430786,-8.999735,0.676593
1421362521446.00,5.7896605,-8.187973,0.19429596
1421362521447.00,4.1361985,-8.695567,1.8486557
1421362521447.00,2.3623874,-7.2109547,3.7288957
1421362521448.00,-0.8190967,-4.0935373,4.568051
1421362521462.00,-0.6414162,-2.331851,5.359455
1421362521480.00,2.088008,-4.52509,5.927973
1421362521512.00,5.6790404,-8.120164,7.9820013
1421362521525.00,9.003178,-7.9423337,6.5819626
1421362521542.00,6.2608805,-6.4671516,3.0638287
1421362521560.00,4.088448,-7.281458,5.548063
1421362521581.00,4.5665536,-7.9171863,5.5559964
1421362521668.00,7.8433895,-10.56503,1.565295
1421362521668.00,6.6725245,-6.9760933,-0.0782872
1421362521669.00,4.3550434,-7.2039194,2.4700136
1421362521669.00,3.6844382,-8.043972,5.970185
1421362521680.00,5.9845552,-7.1437445,4.8635364
1421362521707.00,8.183482,-7.9514647,6.0303597
1421362521725.00,10.487192,-6.893914,3.0687685
1421362521740.00,7.4667726,-5.336253,-1.2701088
1421362521760.00,1.8278489,-7.3509135,-0.19175126
1421362521780.00,1.6383431,-7.1715865,2.3168821
1421362521800.00,3.979325,-6.5870523,1.2844789
1421362521821.00,4.7301636,-11.000624,4.153862
1421362521841.00,5.059778,-9.59834,3.357518
1421362521860.00,3.667224,-8.653655,-1.0550061
1421362521880.00,1.1283536,-7.281907,-0.5849835
1421362521900.00,0.21525238,-6.069728,0.42317
1421362521920.00,1.479673,-5.854176,2.7583141
1421362521940.00,3.200794,-5.6760464,-2.0200493
1421362521961.00,1.7988094,-4.944817,-7.1165013
1421362521980.00,-3.565286,-9.031619,-0.064815216
1421362522001.00,5.9083633,-15.535145,9.105715
1421362522022.00,11.092234,-11.699222,-4.4900627
1421362522041.00,6.3700037,-10.244995,-2.8755202
1421362522060.00,6.5650477,-14.483881,-5.003046
1421362522080.00,5.277426,-7.1081185,-2.911745
1421362522100.00,8.263566,-6.0876904,-4.6072693
1421362522120.00,10.210268,-5.0868716,-1.7395326
1421362522140.00,5.720654,-8.462652,-0.89992857
1421362522160.00,-0.85427356,-6.156847,-1.2928615
1421362522180.00,-2.7093658,-5.844147,2.6123676
1421362522200.00,-2.4363337,-7.427704,1.5489789
1421362522221.00,-7.0543804,-13.12336,3.59702
1421362522241.00,-3.7520974,-9.561217,-4.704567
1421362522260.00,-0.011975098,-7.9495187,-5.8948917
1421362522280.00,1.474883,-9.956994,7.480694
1421362522343.00,-1.0220746,-7.4327936,-12.053235
1421362522344.00,-1.3073813,-5.16935,-8.019573
1421362522345.00,-1.6621436,-5.389243,1.8456619
1421362522369.00,-1.5172448,-9.941277,2.381398
1421362522380.00,-2.8650422,-9.390123,-7.082522
1421362522455.00,-2.743944,-8.300539,-5.423821
1421362522456.00,-1.6799566,-6.672824,-0.9991722
1421362522456.00,-0.56717056,-1.6097525,-3.1633718
1421362522463.00,0.47930327,-1.1761043,-2.474654
1421362522543.00,2.8154953,-5.758974,-3.8444555
1421362522545.00,3.4805622,-7.0977902,-5.3567605
1421362522545.00,0.31913635,-5.4289107,1.3268409
1421362522547.00,-1.7441729,-9.847572,3.7916152
1421362522564.00,-1.1936178,-5.8733363,-3.2084281
1421362522581.00,-0.6394702,-4.8181806,-2.8321106
1421362522600.00,-0.22722748,-2.7390041,-0.0398172
1421362522621.00,-0.18516494,-3.4715807,2.0252883
1421362522689.00,-9.9942665,-17.13367,9.072185
1421362522690.00,-0.11660752,-18.059496,1.2585827
1421362522691.00,-1.4802718,-5.433401,-8.182883
1421362522701.00,-3.2928524,-6.962172,-3.6507583
1421362522723.00,-6.246211,-9.601334,-0.05373825
1421362522742.00,-10.008636,-9.981843,0.2932402
1421362522761.00,-11.584859,-6.4532304,-0.05358856
1421362522781.00,-8.884475,-6.862479,-0.3266208
1421362522801.00,-6.1087966,-8.215217,-0.06256989
1421362522820.00,-5.362299,-9.24732,-0.5680687
1421362522841.00,-5.3922367,-9.140143,-1.7110918
1421362522860.00,-5.6297927,-8.852441,-1.3933026
1421362522880.00,-5.7996893,-8.493787,-0.7711963
1421362522901.00,-5.325925,-8.134234,-0.88286406
1421362522920.00,-5.40032,-8.902737,-1.9965482
1421362522941.00,-5.67919,-8.828641,-2.026486
1421362522964.00,-5.038672,-8.236023,-2.2109025
1421362523039.00,-4.505331,-8.245454,-2.5706043
1421362523039.00,-4.853657,-8.621022,-3.497477
1421362523040.00,-5.226681,-8.169112,-2.91414
1421362523041.00,-5.9462347,-6.74213,-1.2759466
1421362523062.00,-5.4576507,-5.8019347,-0.42212218
1421362523082.00,-4.797374,-6.240523,-0.45295808
1421362523100.00,-4.2372384,-6.878646,-1.2097843
1421362523120.00,-3.8583765,-7.595954,-1.6708255
1421362523140.00,-4.019292,-7.533983,-2.0161574
1421362523160.00,-4.0154,-7.422315,-2.360142
1421362523180.00,-3.9998324,-7.7636056,-2.7159522
1421362523201.00,-4.1637416,-8.134983,-3.0990057
1421362523221.00,-4.4411144,-8.068072,-3.3265324
1421362523240.00,-5.085375,-7.9833484,-3.8255947
1421362523261.00,-5.605543,-8.331974,-4.1252713
1421362523280.00,-5.638624,-9.842033,-4.1665854
1421362523350.00,-5.5558467,-11.430081,-5.002298
1421362523351.00,-5.1229467,-10.596764,-3.7347336
1421362523352.00,-5.3708315,-7.269633,0.74574924
1421362523361.00,-7.123237,-5.0828304,3.1250515
1421362523381.00,-7.73756,-4.9067965,1.6558566
1421362523401.00,-6.2521987,-7.477401,-0.70458484
1421362523420.00,-4.644392,-10.277478,-0.65878004
1421362523442.00,-4.463867,-9.984537,0.50504977
1421362523462.00,-4.321214,-9.457034,1.1487112
1421362523480.00,-3.7660186,-8.684191,1.40902
1421362523500.00,-3.3949401,-8.532257,1.6808547
1421362523522.00,-3.1707065,-9.210048,2.059118
1421362523541.00,-2.8479776,-9.838291,1.6158898
1421362523560.00,-3.3275802,-9.527388,0.796344
1421362523581.00,-3.9366636,-9.111552,1.0991642
1421362523601.00,-4.3228607,-8.595575,1.5661931
1421362523664.00,-4.1098537,-8.703501,1.6214283
1421362523665.00,-3.9040315,-8.814421,1.1439213
1421362523665.00,-3.5708244,-8.8653145,1.253643
1421362523682.00,-3.0106893,-9.397758,1.3768369
1421362523700.00,-2.4595354,-9.93469,0.93480605
1421362523720.00,-2.1236339,-9.980495,0.6893166
1421362523741.00,-1.800905,-9.73276,0.44098297
1421362523760.00,-1.3434563,-9.841135,0.30895752
1421362523782.00,-1.0171349,-10.150841,0.067060545
1421362523802.00,-0.82044387,-9.672136,-0.035625916
1421362523822.00,-1.3314812,-9.460327,0.16121475
1421362523841.00,-2.2043161,-8.974438,0.8068222
1421362523862.00,-2.649191,-8.796009,1.1467652
1421362523885.00,-2.4031026,-9.832454,0.7458989
1421362523902.00,-1.7389339,-10.631492,0.7765851
1421362523923.00,-1.700913,-11.064241,0.54756135
1421362523942.00,-2.6686506,-11.578423,-0.65204406
1421362523962.00,-3.5606456,-11.087893,-1.9995419
1421362524026.00,-3.955225,-10.7662115,-2.5571325
1421362524027.00,-3.4682877,-11.407329,-2.2191353
1421362524028.00,-2.561174,-12.741055,-1.6052618
1421362524041.00,-2.4345374,-13.900992,-1.0121951
1421362524062.00,-3.4048197,-14.01745,-1.6453785
1421362524083.00,-4.5619135,-12.965288,-2.0559745
1421362524100.00,-5.487738,-11.28608,-0.7433542
1421362524122.00,-7.0912037,-10.369986,2.7027795
1421362524144.00,-7.9944253,-8.970246,4.793931
1421362524161.00,-9.065449,-10.484647,2.1555176
1421362524182.00,-6.726562,-11.134596,-2.8053162
1421362524201.00,-6.1233163,-10.57446,0.51522857
1421362524220.00,-5.103936,-9.602681,0.15028748
1421362524240.00,-4.370162,-7.6447525,-0.82089293
1421362524260.00,-3.4226327,-7.063811,0.58902514
1421362524281.00,-2.9362938,-5.7999887,1.0596465
1421362524344.00,-2.7928922,-4.608317,1.0716215
1421362524345.00,-2.7913952,-3.8209543,1.1067984
1421362524346.00,-2.6720934,-3.2148647,0.55639297
1421362524361.00,-2.3179297,-2.671794,0.08068222
1421362524381.00,-1.8748512,-2.7120602,-0.024099885
1421362524401.00,-1.8098863,-3.2765365,-0.98674804
1421362524421.00,-2.5912614,-3.9918988,-2.8145971
1421362524441.00,-3.8607714,-6.6704288,-6.8701134
1421362524463.00,-4.937782,-13.291161,-14.307847
1421362524480.00,-5.1024394,-18.016983,-12.265943
1421362524501.00,-4.2797503,-13.680651,-6.452183
1421362524521.00,-5.2076707,-9.342073,-3.4578094
1421362524541.00,-5.817652,-7.470515,-3.266208
1421362524561.00,-5.507198,-5.536387,-3.4997222
1421362524580.00,-7.423812,-8.500972,-2.4071443
1421362524646.00,-11.044184,-11.475586,0.76356214
1421362524647.00,-9.145532,-13.742922,-1.6750168
1421362524647.00,-3.5591488,-7.7436967,4.4053392
1421362524661.00,-3.1284943,-4.6907954,4.831952
1421362524681.00,-3.0799952,-3.7351828,5.58294
1421362524701.00,-2.895878,-6.5247817,4.647685
1421362524721.00,-1.3633648,-12.338542,1.7627344
1421362524741.00,-0.05867798,-14.840738,-0.8414003
1421362524764.00,-1.6232245,-12.144396,0.02335144
1421362524781.00,-3.1431637,-8.653655,1.5227834
1421362524805.00,-4.4589276,-7.045399,0.124241635
1421362524821.00,-4.456682,-7.4302487,0.24099883
1421362524841.00,-3.6366875,-8.814271,0.20088226
1421362524861.00,-2.6533823,-9.510623,0.49157774
1421362524880.00,-2.5982969,-9.200767,0.26225463
1421362524901.00,-2.9409342,-8.740623,0.5456154
1421362524924.00,-2.9484186,-8.568781,1.4771283
1421362524985.00,-2.7638526,-8.625663,1.7625847
1421362524986.00,-2.470313,-8.784931,1.4600638
1421362524987.00,-2.4677682,-9.398655,0.60683805
1421362525001.00,-2.5997937,-9.834699,-0.082478486
1421362525023.00,-3.167563,-9.714199,-0.3408412
1421362525041.00,-3.1983988,-10.185569,-0.9834549
1421362525061.00,-2.836152,-10.864707,-1.1184741
1421362525086.00,-2.5029452,-11.7914295,-1.0234218
1421362525107.00,-2.6634114,-11.72856,-0.3927832
1421362525121.00,-3.2530353,-11.620635,-0.6367758
1421362525141.00,-3.2507899,-12.167598,-1.8681152
1421362525161.00,-2.949317,-13.841566,-2.326462
1421362525181.00,-2.3080504,-14.674135,-2.5194108
1421362525201.00,-1.4102174,-13.961766,-2.4360342
1421362525222.00,-2.3450234,-13.420342,-0.09190887
1421362525242.00,-3.9715412,-10.921738,3.0371842
1421362525264.00,-4.7816563,-10.4003725,4.9380813
1421362525330.00,-6.531667,-11.0283165,3.4615517
1421362525330.00,-8.459658,-11.029215,1.5506254
1421362525331.00,-6.48242,-11.946358,-0.5962102
1421362525346.00,-3.542683,-11.683504,2.097139
1421362525361.00,-4.127816,-9.458382,0.74380326
1421362525382.00,-4.730014,-6.740932,0.17872833
1421362525401.00,-4.4713516,-5.6362295,1.9309845
1421362525421.00,-4.1189847,-4.74633,2.0628603
1421362525442.00,-4.0854545,-3.9387593,1.9478993
1421362525472.00,-4.021687,-3.5663338,1.5262262
1421362525481.00,-3.811524,-2.9666808,1.3745915
1421362525503.00,-3.3271313,-2.350562,1.4952407
1421362525521.00,-2.7282267,-2.2150936,1.1202704
1421362525542.00,-2.2162912,-3.0446687,-0.34069154
1421362525561.00,-2.7496321,-5.7312818,-3.68354
1421362525626.00,-4.619843,-12.86365,-10.639276
1421362525627.00,-3.2271392,-18.667381,-15.081139
1421362525627.00,-2.990182,-13.526023,-9.134155
1421362525642.00,-5.036127,-7.6788816,-4.0468345
1421362525661.00,-6.2848306,-5.3711305,-1.4274316
1421362525682.00,-6.690038,-4.9124846,-2.05822
1421362525701.00,-7.168443,-5.493726,4.9129333
1421362525721.00,-11.804453,-11.447744,2.268832
1421362525741.00,-7.3932757,-17.101936,-3.7964053
1421362525763.00,-0.5266049,-9.98289,3.218607
1421362525787.00,-1.4563216,-4.82312,5.2200947
1421362525801.00,-2.6854157,-5.5166283,6.11673
1421362525821.00,-3.390749,-10.098899,5.292095
1421362525841.00,-1.8925145,-12.920681,1.357078
1421362525861.00,-0.9011261,-12.210408,-2.4291487
1421362525881.00,-2.6188042,-9.580827,-0.16016693
1421362525902.00,-4.5807743,-7.678133,1.3894107
1421362525975.00,-5.0823812,-7.1635036,1.689836
1421362525981.00,-4.205804,-7.46827,0.506846
1421362525984.00,-3.0054502,-8.205486,-0.5123845
1421362525985.00,-2.2309606,-9.065449,-0.13097763
1421362526005.00,-2.0541782,-9.2747135,0.64261365
1421362526023.00,-2.7497818,-9.120684,1.2252022
1421362526041.00,-3.2828233,-8.993748,1.4254857
1421362526061.00,-3.6570451,-8.76173,0.77014846
1421362526082.00,-3.7809875,-9.047635,0.28216323
1421362526101.00,-3.5675313,-9.422306,-0.07364685
1421362526121.00,-2.972369,-10.280771,-0.77299255
1421362526141.00,-2.199526,-10.761721,-1.060844
1421362526161.00,-1.685495,-10.775791,-0.41463774
1421362526181.00,-2.1151016,-10.331066,-0.39083725
1421362526201.00,-2.6391618,-11.403437,-2.0555255
1421362526221.00,-2.82762,-11.61794,-2.3547533
1421362526313.00,-3.0912218,-12.643757,-2.983446
1421362526313.00,-3.2759376,-14.72952,-3.6902761
1421362526314.00,-2.4276516,-14.143937,-3.5678306
1421362526314.00,-1.4096187,-14.114449,0.6129753
1421362526329.00,-2.9017158,-12.019405,4.1397915
1421362526342.00,-4.627477,-10.995685,4.204457
1421362526362.00,-6.068381,-11.852503,2.7436445
1421362526383.00,-8.968899,-12.376863,0.21285737
1421362526403.00,-8.258925,-12.068204,-4.023633
1421362526422.00,-6.5152016,-10.629994,0.30746064
1421362526441.00,-3.7390745,-9.814191,4.109704
1421362526461.00,-3.8673577,-8.101603,0.4923262
1421362526481.00,-3.6646793,-6.511609,0.56342834
1421362526501.00,-3.752846,-5.5380335,1.2305909
1421362526521.00,-4.255501,-4.467909,1.3078303
1421362526541.00,-4.4099793,-3.6167789,1.5115567
1421362526624.00,-4.243376,-3.1725028,1.6667839
1421362526624.00,-4.2772055,-2.5969496,1.8357825
1421362526625.00,-3.843258,-2.0498374,2.016756
1421362526626.00,-3.4028738,-2.384242,1.207988
1421362526641.00,-2.792443,-3.6905754,-0.6212082
1421362526661.00,-3.262316,-6.758895,-3.9246886
1421362526681.00,-4.9822392,-13.05106,-11.055261
1421362526702.00,-4.3884244,-18.692827,-15.341746
1421362526721.00,-1.9579284,-13.165572,-9.553433
1421362526741.00,-3.369044,-8.194559,-4.749773
1421362526761.00,-5.29943,-7.2726264,-1.9411633
1421362526782.00,-6.5138545,-6.248905,-1.5085629
1421362526801.00,-7.133566,-9.30974,-3.2528856
1421362526821.00,-6.3271923,-13.904435,2.4945626
1421362526841.00,-6.0576034,-12.739708,0.83571213
1421362526861.00,-5.206024,-6.0058107,2.0508852
1421362526922.00,-4.8084507,-3.4655933,4.2556505
1421362526922.00,-4.7969246,-3.8880148,5.392686
1421362526923.00,-4.355193,-7.572902,5.430108
1421362526941.00,-2.1859045,-12.797038,2.9183314
1421362526961.00,-0.22094055,-13.490846,-0.30880782
1421362526981.00,-1.4386582,-11.097921,0.11136841
1421362527001.00,-2.7632537,-8.770861,1.0499167
1421362527021.00,-3.630251,-7.940837,1.2723541
1421362527041.00,-3.9484892,-8.243657,0.49472123
1421362527061.00,-3.4121544,-8.353828,0.56058425
1421362527081.00,-3.044519,-8.825797,0.040415954
1421362527102.00,-2.4968078,-8.863369,0.41658372
1421362527121.00,-2.149081,-8.514594,1.0071057
1421362527141.00,-2.2670357,-8.844508,1.1117381
1421362527161.00,-3.046465,-8.8951025,0.6727011
1421362527186.00,-3.4621503,-9.751322,0.305365
1421362527201.00,-3.1813345,-9.682915,-0.2945874
1421362527271.00,-2.0275338,-10.46429,-1.2865746
1421362527272.00,-0.29264146,-11.437566,-1.5100598
1421362527272.00,-0.9500743,-11.878998,-0.8705896
1421362527283.00,-3.4100587,-11.391911,-0.8339159
1421362527301.00,-3.960614,-11.6369505,-2.0965402
1421362527321.00,-2.8960276,-12.358899,-2.6997857
1421362527341.00,-2.8357031,-13.255086,-3.206931
1421362527362.00,-2.7870543,-13.493091,-4.6545706
1421362527381.00,-1.502276,-14.03676,-2.828069
1421362527402.00,-1.9597248,-14.477294,3.7752993
1421362527421.00,-4.151467,-12.376713,5.8026834
1421362527442.00,-5.86196,-11.713891,3.6278558
1421362527461.00,-9.0374565,-12.076736,0.9193881
1421362527482.00,-9.850865,-11.711495,-2.8674371
1421362527502.00,-7.0898566,-11.145523,-0.43319917
1421362527522.00,-3.5793567,-9.515712,1.5447876
1421362527587.00,-3.138673,-8.336763,0.77419007
1421362527587.00,-3.1292427,-7.499405,0.89139634
1421362527588.00,-2.9747639,-6.7162337,2.05822
1421362527601.00,-3.1037955,-5.461992,2.6382637
1421362527621.00,-3.410508,-4.218378,2.298171
1421362527641.00,-3.8106258,-3.3232393,1.6510665
1421362527661.00,-3.7943096,-2.2719755,1.4739848
1421362527681.00,-3.1018496,-1.8182689,1.4437478
1421362527702.00,-2.6057813,-1.7197738,0.9565109
1421362527721.00,-2.3815475,-2.9994626,-0.2906955
1421362527742.00,-3.2352223,-5.174589,-2.1891975
1421362527762.00,-4.998705,-10.29559,-8.174352
1421362527781.00,-5.96779,-18.213675,-17.229471
1421362527802.00,-3.1263986,-16.061451,-12.172088
1421362527821.00,-3.8511915,-9.818532,-6.818321
1421362527894.00,-6.1728635,-8.20414,-3.1278956
1421362527895.00,-8.127499,-7.536827,-1.9875668
1421362527896.00,-8.523575,-9.862391,-2.290836
1421362527905.00,-7.9933777,-10.919642,4.1426353
1421362527922.00,-6.718928,-7.8294687,3.1130762
1421362527942.00,-3.6290534,-5.5812936,3.5119967
1421362527962.00,-2.5891657,-6.4464946,4.9552956
1421362527981.00,-2.2926323,-8.188422,6.1593914
1421362528001.00,-1.9907103,-10.519075,4.1641903
1421362528021.00,-1.409469,-11.91657,-0.36449203
1421362528041.00,-1.8739531,-11.077115,0.35087037
1421362528061.00,-2.9255164,-9.3453665,0.8725355
1421362528081.00,-3.5125954,-8.169561,0.7586224
1421362528101.00,-3.585494,-8.080946,0.23575974
1421362528121.00,-3.6260595,-8.469089,-0.13501923
1421362528141.00,-3.1572344,-8.720416,0.17318985
1421362528161.00,-2.6951454,-8.766071,0.042212218
1421362528225.00,-2.3080504,-8.848549,0.104782104
1421362528225.00,-2.0483406,-8.741222,0.7997868
1421362528226.00,-2.1570144,-8.883277,0.9316626
1421362528242.00,-2.444866,-9.128168,0.51013917
1421362528261.00,-3.016677,-9.912836,0.013022918
1421362528282.00,-3.1925611,-9.425599,-1.1573932
1421362528301.00,-2.5777895,-9.980346,-2.1299207
1421362528323.00,-1.598975,-11.066338,-0.47047165
1421362528342.00,-1.2765454,-11.451487,0.20701951
1421362528362.00,-2.743495,-11.540252,-0.13591737
1421362528391.00,-3.1855257,-12.255015,-1.3015435
1421362528402.00,-2.2674847,-13.759537,-1.1054512
1421362528422.00,-2.738106,-14.798527,-3.0011091
1421362528442.00,-2.5692573,-14.838044,-3.7507503
1421362528462.00,-2.564018,-14.286441,-0.9942325
1421362528481.00,-4.3575883,-11.700269,1.0978171
1421362528502.00,-5.6794896,-9.979747,3.2894096
1421362528569.00,-6.4532304,-10.138567,3.2828233
1421362528570.00,-9.055569,-11.012898,1.1985576
1421362528570.00,-9.298364,-11.51705,-2.417323
1421362528581.00,-6.800359,-10.554552,-0.09834549
1421362528601.00,-3.0894256,-10.359058,2.3625371
1421362528622.00,-2.9967682,-9.717193,0.12933105
1421362528642.00,-3.2241454,-7.43459,1.2099339
1421362528663.00,-3.275339,-5.3808603,2.012565
1421362528682.00,-3.5875895,-3.9939945,2.7942393
1421362528702.00,-3.7323387,-3.2507899,2.5087829
1421362528724.00,-3.6579432,-3.0808933,1.8401234
1421362528742.00,-3.8112245,-2.5071363,0.9565109
1421362528762.00,-3.3673975,-1.3820759,0.8981323
1421362528781.00,-3.309468,-1.355581,0.06256989
1421362528801.00,-3.0894256,-3.1343322,-0.47825545
1421362528824.00,-3.794609,-7.148684,-4.1426353
1421362528884.00,-5.533094,-16.510666,-14.36832
1421362528885.00,-4.534371,-19.103275,-17.226328
1421362528885.00,-3.6992574,-9.847572,-10.029444
1421362529049.00,-6.18424,-7.242539,-4.509822
1421362529050.00,-7.9338017,-5.1105227,-0.16795075
1421362529050.00,-7.36214,-6.484665,-0.9568103
1421362529051.00,-7.417226,-10.56488,2.920876
1421362529051.00,-9.756711,-13.507462,1.7089962
1421362529052.00,-3.1870224,-10.654694,1.4691948
1421362529053.00,-1.8291962,-6.4795756,4.6759763
1421362529053.00,-2.1963825,-4.9943643,6.652616
1421362529073.00,-2.8849506,-7.147936,6.3824277
1421362529081.00,-2.6908045,-10.927426,2.9476702
1421362529113.00,-0.8975336,-13.289215,-1.6043637
1421362529122.00,-1.3181589,-11.375444,-0.34278718
1421362529147.00,-2.7204428,-8.871451,0.9488768
1421362529161.00,-3.9083724,-7.6712475,0.46807662
1421362529238.00,-4.656367,-7.5519457,-0.18621276
1421362529239.00,-3.8823266,-8.004904,0.17528549
1421362529239.00,-3.0193713,-8.68,0.19010468
1421362529253.00,-2.4557931,-9.027128,0.17139359
1421362529262.00,-1.9585272,-8.663085,0.54875886
1421362529282.00,-1.9929557,-8.556357,0.95890594
1421362529302.00,-2.407294,-8.788075,0.7316785
1421362529322.00,-2.567461,-9.390722,0.3543132
1421362529342.00,-2.506388,-9.937534,0.043559417
1421362529362.00,-2.1013303,-9.980196,-0.32422578
1421362529382.00,-1.5600559,-10.763517,-1.2865746
1421362529401.00,-2.2285657,-11.537707,-1.4751823
1421362529422.00,-3.1958542,-11.318413,-0.69470537
1421362529442.00,-3.6476147,-11.648327,-0.7674541
1421362529462.00,-3.0285022,-12.131073,-0.8969348
1421362529481.00,-2.6716442,-13.284425,-1.5980768
1421362529501.00,-2.749183,-14.350059,-3.6552489
1421362529579.00,-1.8010547,-14.220878,-3.686534
1421362529580.00,-1.4432987,-14.193185,0.81924635
1421362529580.00,-3.6682718,-11.6435375,3.8981936
1421362529591.00,-5.2471886,-10.125244,3.3197966
1421362529602.00,-6.704558,-10.870544,2.2369483
1421362529622.00,-9.478739,-11.537108,-0.6343808
1421362529643.00,-8.619526,-11.788286,-2.595303
1421362529665.00,-6.186186,-9.977352,2.7768755
1421362529686.00,-3.5078056,-9.772578,1.4052777
1421362529702.00,-3.7001555,-8.447534,0.34413436
1421362529723.00,-3.2802787,-7.2082605,1.3906082
1421362529741.00,-3.345992,-5.360952,2.1932392
1421362529762.00,-3.4067657,-4.4671607,2.8782148
1421362529782.00,-3.6380346,-3.645519,2.4295976
1421362529802.00,-3.8960981,-3.4064662,1.6390915
1421362529877.00,-3.9327717,-2.6113198,1.3443544
1421362529877.00,-3.62576,-1.2277468,1.1085947
1421362529878.00,-3.2775843,-2.0359163,0.04445755
1421362529890.00,-2.7187963,-4.0079155,-1.2178674
1421362529902.00,-4.011508,-8.945398,-6.9687586
1421362529922.00,-5.6785913,-17.655785,-17.267641
1421362529942.00,-4.251609,-15.887063,-14.216986
1421362529962.00,-4.3860292,-7.379654,-7.698641
1421362529982.00,-7.0012407,-5.7296352,-1.4763799
1421362530002.00,-6.5825615,-3.9806721,-0.34548157
1421362530022.00,-6.015241,-6.0025177,2.5339308
1421362530042.00,-8.967552,-10.427466,4.4339294
1421362530062.00,-8.4978285,-15.6992035,-0.29428804
1421362530082.00,-1.5305672,-11.0387945,1.8268012
1421362530102.00,-0.90816146,-6.3665605,4.651128
1421362530122.00,-1.9896625,-5.6467075,6.964118
1421362530212.00,-2.8003767,-9.594298,6.481971
1421362530212.00,-2.3504124,-11.948603,1.7510587
1421362530213.00,-0.9048683,-11.940819,-1.6833993
1421362530213.00,-2.1188438,-10.042616,-0.32826737
1421362530228.00,-4.2525067,-8.147557,-0.33500335
1421362530242.00,-5.2394047,-6.687793,0.26794282
1421362530262.00,-4.7586045,-6.962621,0.7643106
1421362530282.00,-3.2192056,-7.597451,0.8789722
1421362530302.00,-1.9700532,-8.202642,0.44801834
1421362530323.00,-1.7428257,-9.2311535,-0.21989273
1421362530343.00,-2.0622616,-9.575138,-0.5653743
1421362530365.00,-2.7854078,-9.533226,-0.30776
1421362530382.00,-3.1998959,-9.4049425,0.2402504
1421362530402.00,-2.997816,-9.439221,0.36179763
1421362530423.00,-2.10148,-10.394085,-1.8074913
1421362530442.00,-2.484234,-11.244467,-2.9548554
1421362530462.00,-2.739603,-11.361673,-0.38574782
1421362530532.00,-2.2664368,-11.447295,0.99049026
1421362530532.00,-1.5353572,-12.46413,-0.81954575
1421362530533.00,-1.4157559,-13.346097,-2.5346792
1421362530544.00,-1.8652711,-14.181509,-2.7900481
1421362530562.00,-1.8944604,-14.590459,-3.7012033
1421362530582.00,-1.7702188,-15.038926,-1.3079801
1421362530602.00,-3.7616775,-12.823683,1.739832
1421362530624.00,-5.5703664,-9.971214,5.284012
1421362530646.00,-6.838529,-10.9350605,5.0156198
1421362530662.00,-8.643176,-11.727962,2.5095315
1421362530682.00,-9.144484,-12.177776,-1.8200651
1421362530705.00,-7.1326675,-11.032957,-3.3846116
1421362530722.00,-5.76107,-9.193881,1.5572118
1421362530743.00,-3.7738023,-8.605156,2.5204587
1421362530770.00,-3.1451097,-7.3832464,1.7413288
1421362530782.00,-3.1641202,-5.313051,1.9098784
1421362530810.00,-2.8455825,-4.4110274,2.8999195
1421362530886.00,-2.9711714,-3.4795144,2.205813
1421362530886.00,-3.315755,-3.09691,1.5899936
1421362530887.00,-3.3391063,-2.4502547,1.6831
1421362530887.00,-3.4814603,-1.2903168,1.9531385
1421362530907.00,-3.599415,-1.8004559,1.229094
1421362530923.00,-3.2424073,-3.8296363,0.032931518
1421362530942.00,-3.5822008,-8.254584,-4.627627
1421362530962.00,-5.75628,-16.50438,-14.550043
1421362530983.00,-5.785918,-18.726208,-15.735727
1421362531002.00,-4.4795847,-8.643026,-9.945468
1421362531022.00,-5.5519547,-5.795947,-5.210066
1421362531042.00,-9.1588545,-6.6822543,-1.0394385
1421362531063.00,-8.692424,-8.587492,-1.3528867
1421362531082.00,-7.344477,-10.002649,3.5232234
1421362531104.00,-7.1765265,-10.99763,3.503764
1421362531122.00,-4.5011396,-8.982222,2.1969814
1421362531142.00,-2.5424628,-6.4822702,3.884572
1421362531210.00,-2.560725,-6.5436425,6.1378365
1421362531211.00,-3.0573921,-8.460257,5.4021163
1421362531212.00,-2.0926483,-11.434571,0.950224
1421362531222.00,-0.94019485,-11.899505,-0.8735834
1421362531242.00,-1.7781523,-10.458302,0.7590715
1421362531262.00,-2.941084,-8.623717,2.0216959
1421362531282.00,-3.6796482,-8.296797,0.9846524
1421362531302.00,-3.82305,-8.313711,-0.667462
1421362531322.00,-3.0376332,-8.458012,-0.51118696
1421362531342.00,-2.2924829,-8.308023,-0.14295273
1421362531362.00,-1.7877324,-8.745863,0.53169435
1421362531385.00,-1.717229,-9.065149,1.3287867
1421362531402.00,-1.8040484,-9.234147,0.5574408
1421362531422.00,-2.5004003,-9.183104,-0.14130615
1421362531485.00,-3.2150145,-9.3806925,-0.24069947
1421362531486.00,-3.074307,-10.005493,0.0291893
1421362531487.00,-2.5126748,-10.552306,-0.24459137
1421362531502.00,-1.371448,-10.694061,-2.1249812
1421362531522.00,-1.368604,-11.970457,-0.98255676
1421362531542.00,-2.6002429,-11.944262,-0.05269043
1421362531562.00,-3.3738341,-12.624447,-2.1612058
1421362531582.00,-2.8442354,-13.155094,-3.6187248
1421362531602.00,-2.950664,-13.587095,-3.7443137
1421362531622.00,-2.8538156,-14.249318,-4.229754
1421362531642.00,-1.4374608,-14.47969,-0.93286014
1421362531662.00,-2.7533743,-12.7195,3.311863
1421362531682.00,-4.576433,-10.851384,4.770879
1421362531702.00,-6.613547,-11.7335005,2.8136988
1421362531722.00,-10.093361,-12.659025,0.05733078
1421362531742.00,-9.323213,-12.087065,-3.8788838
1421362531762.00,-7.272776,-10.4592,-1.1217673
1421362531839.00,-3.974984,-9.742491,4.3595343
1421362531839.00,-3.43356,-8.757838,1.2855268
1421362531840.00,-3.098856,-7.0561767,1.081501
1421362531851.00,-2.9779074,-5.4649854,2.0416045
1421362531862.00,-3.1591804,-4.6940885,2.9081526
1421362531882.00,-3.1573842,-3.6678228,2.600542
1421362531902.00,-3.3629067,-3.041076,1.8149757
1421362531922.00,-3.3645535,-2.181713,1.7775536
1421362531942.00,-3.3178506,-0.77583665,1.6786094
1421362531962.00,-3.1292427,-0.95097244,0.87747526
1421362531982.00,-2.7410998,-2.973716,-0.56851774
1421362532002.00,-3.408562,-8.484806,-6.7946706
1421362532022.00,-5.709876,-17.18232,-17.091608
1421362532042.00,-3.7971537,-16.926052,-13.943504
1421362532062.00,-4.700675,-8.653056,-7.634424
1421362532082.00,-7.9415855,-6.837332,-2.7945387
1421362532102.00,-8.451575,-5.641319,-1.068029
1421362532163.00,-6.8304462,-8.743169,-0.60549086
1421362532164.00,-7.0563264,-10.548564,4.9302974
1421362532165.00,-6.166726,-10.722802,2.7860065
1421362532182.00,-3.585943,-7.100634,2.7388544
1421362532202.00,-3.1252012,-6.3003983,4.384682
1421362532223.00,-2.7647507,-6.9466043,5.82349
1421362532244.00,-2.897824,-9.419013,3.9722896
1421362532266.00,-1.1246114,-12.634776,0.37482056
1421362532282.00,-0.49457154,-12.600946,0.8276289
1421362532304.00,-1.5396981,-10.278076,0.53019744
1421362532322.00,-2.8642936,-8.072863,0.25985962
1421362532343.00,-3.8145177,-8.226892,-0.09430389
1421362532364.00,-3.7523968,-8.194559,-0.29877868
1421362532382.00,-2.726131,-8.0067,-0.15881974
1421362532402.00,-2.0441492,-8.322543,0.15702347
1421362532422.00,-1.8380278,-8.577463,0.44247985
1421362532498.00,-2.3475683,-8.756042,0.38724473
1421362532499.00,-2.8437862,-9.253008,0.20372635
1421362532500.00,-3.2726445,-9.501342,-0.11091934
1421362532512.00,-3.2527359,-9.743388,-0.8228389
1421362532525.00,-2.6298811,-10.374027,-1.5673906
1421362532542.00,-2.1056712,-11.047177,-1.7522562
1421362532563.00,-1.9501446,-11.457923,-0.25162673
1421362532582.00,-1.8452128,-11.86328,0.49666718
1421362532603.00,-1.8627264,-12.558734,-0.24459137
1421362532622.00,-1.705254,-13.053605,-1.7266594
1421362532642.00,-2.4391778,-13.620326,-2.9147387
1421362532663.00,-3.080444,-14.501843,-4.144731
1421362532682.00,-2.4556434,-13.904585,-3.010839
1421362532702.00,-2.8000772,-12.643907,0.7367679
1421362532723.00,-4.11629,-10.659932,4.6291237
1421362532793.00,-5.5678215,-9.968969,4.42899
1421362532794.00,-7.8790154,-11.529774,2.0145109
1421362532795.00,-10.159074,-12.038416,-1.4238391
1421362532806.00,-7.943382,-11.556418,-4.1854463
1421362532822.00,-5.5036054,-9.581875,3.7094362
1421362532844.00,-3.189717,-9.744885,1.1620336
1421362532862.00,-3.3419504,-7.9646373,0.920885
1421362532882.00,-3.0285022,-6.2930636,1.7935703
1421362532903.00,-3.2183075,-4.9422727,2.4724085
1421362532925.00,-3.437751,-3.5604959,2.7455904
1421362532951.00,-3.4817595,-3.4334102,2.121688
1421362532962.00,-3.5375936,-2.8273206,1.6576529
1421362532986.00,-3.2967443,-1.6977695,1.4355148
1421362533002.00,-2.8951294,-1.2591815,0.9286688
1421362533022.00,-2.5625212,-2.4691155,-0.11870316
1421362533044.00,-2.8322604,-5.624254,-3.3096175
1421362533062.00,-4.884343,-14.322516,-13.298196
1421362533082.00,-4.0222855,-18.865868,-17.82164
1421362533143.00,-3.2078292,-12.507541,-10.0312395
1421362533144.00,-4.493356,-7.447613,-5.0097823
1421362533144.00,-7.063811,-5.27039,-1.2014017
1421362533163.00,-6.524033,-5.6503,-1.2412189
1421362533182.00,-6.2686644,-8.847053,4.228407
1421362533204.00,-9.82467,-14.153518,4.5767326
1421362533231.00,-3.5747163,-13.88812,0.5266049
1421362533242.00,-2.3391857,-7.734865,2.9457242
1421362533263.00,-2.7008336,-4.8644342,6.12152
1421362533282.00,-3.9166055,-4.901258,6.5716343
1421362533302.00,-4.4563828,-9.820179,3.9830673
1421362533322.00,-1.5491285,-13.545332,1.3985417
1421362533342.00,-0.065413974,-11.6932335,-1.431623
1421362533362.00,-1.5521224,-8.99734,0.540526
1421362533384.00,-3.1304402,-7.8406954,0.17034577
1421362533403.00,-3.6935692,-7.415879,0.1950444
1421362533475.00,-3.4440382,-8.004155,0.728535
1421362533476.00,-2.6610165,-8.892109,0.42661285
1421362533476.00,-2.262096,-9.108259,0.29159364
1421362533488.00,-2.2547612,-9.2537565,-0.13247451
1421362533505.00,-2.740052,-9.158405,-0.45759842
1421362533523.00,-3.3340168,-8.855885,0.14355148
1421362533543.00,-3.3421001,-9.161998,0.34952316
1421362533563.00,-2.3710694,-9.681717,-0.30970597
1421362533583.00,-1.0591974,-10.857223,-1.2976515
1421362533602.00,-0.6502478,-12.298126,-0.7677534
1421362533622.00,-1.142574,-12.441228,-0.33096176
1421362533643.00,-2.4078927,-12.066258,-0.6902147
1421362533662.00,-3.2706985,-12.383299,-1.7537531
1421362533682.00,-3.1784904,-13.25793,-2.566563
1421362533702.00,-3.0991552,-14.201268,-4.1641903
1421362533762.00,-2.0520828,-13.966557,-3.595972
1421362533763.00,-2.0348685,-14.261593,1.3693525
1421362533763.00,-3.6068995,-11.066487,5.248236
1421362533783.00,-4.7178893,-10.519974,4.373904
1421362533804.00,-7.25152,-12.061618,1.6657361
1421362533822.00,-9.8888855,-12.694352,-1.5096108
1421362533843.00,-7.4856334,-12.178675,-3.5595977
1421362533862.00,-5.8899517,-9.963132,2.807412
1421362533882.00,-2.8413913,-10.166409,2.3285577
1421362533904.00,-3.0915213,-8.0999565,0.25566834
1421362533928.00,-2.8801606,-5.984854,1.8881736
1421362533943.00,-3.1365774,-4.677623,2.5394692
1421362533962.00,-3.2513888,-3.7564385,3.328628
1421362533983.00,-3.4688864,-3.2379167,2.4604335
1421362534002.00,-3.7899687,-2.5719516,1.9270926
1421362534022.00,-3.8365219,-1.2678635,1.695075
1421362534042.00,-3.522475,-0.4020639,1.0174342
1421362534107.00,-2.883304,-1.8480569,0.19863693
1421362534107.00,-2.740651,-5.191504,-1.9905607
1421362534108.00,-5.056635,-13.207635,-12.439732
1421362534122.00,-4.735253,-18.714233,-18.336868
1421362534142.00,-3.2260914,-12.131672,-10.813213
1421362534163.00,-5.0807347,-6.7636847,-4.595893
1421362534182.00,-7.797136,-4.8713202,-1.3019925
1421362534203.00,-6.7231193,-5.129234,0.6822812
1421362534224.00,-7.7733355,-7.571106,5.857619
1421362534257.00,-10.637329,-14.5172615,3.1680121
1421362534262.00,-1.8363812,-13.269007,1.2784914
1421362534283.00,-1.4278808,-7.8049197,3.9977367
1421362534303.00,-2.5776398,-4.8413825,6.7177305
1421362534323.00,-3.4117053,-6.2924647,6.8008075
1421362534345.00,-3.18822,-10.652897,3.225792
1421362534363.00,-0.76760375,-13.213173,-0.882415
1421362534382.00,-0.65638506,-11.314372,-0.549657
1421362534454.00,-2.427053,-9.047336,0.7740404
1421362534454.00,-3.9161563,-7.9430823,-0.14669494
1421362534455.00,-4.6461883,-7.4351883,-0.3980223
1421362534464.00,-3.8239481,-7.641759,0.047151946
1421362534483.00,-2.6470954,-8.757239,0.32033387
1421362534503.00,-1.902843,-9.221574,0.26824218
1421362534523.00,-1.8049465,-8.714278,0.44098297
1421362534544.00,-2.2406905,-8.918155,0.6933582
1421362534564.00,-2.7499316,-9.124725,0.6887178
1421362534592.00,-2.647245,-9.343121,-0.46373567
1421362534604.00,-2.1631517,-9.880803,-1.9763402
1421362534623.00,-1.2591815,-11.032957,-2.106719
1421362534643.00,-1.6772621,-11.793824,-0.07304809
1421362534663.00,-2.6351202,-11.51241,0.45086244
1421362534683.00,-3.0374835,-12.340338,-0.9913884
1421362534735.00,-2.2540128,-13.282479,-1.9538869
1421362534736.00,-2.0445983,-14.332695,-1.8676661
1421362534746.00,-2.346221,-15.02755,-3.7796402
1421362534763.00,-1.6810043,-14.382242,-2.74589
1421362534783.00,-2.444267,-13.109139,0.82583266
1421362534803.00,-3.9219942,-10.406509,4.0968304
1421362534825.00,-5.322781,-9.825867,3.7567377
1421362534845.00,-8.396789,-11.871963,0.8003856
1421362534865.00,-10.017768,-12.607083,-3.0400283
1421362534888.00,-7.533085,-11.869417,-3.8502932
1421362534904.00,-4.0420446,-10.889405,5.7146664
1421362534923.00,-2.305805,-10.018517,1.6643889
1421362534943.00,-2.782414,-7.2426887,0.5840854
1421362534964.00,-2.4797432,-5.9812617,2.0255878
1421362534983.00,-2.7137067,-4.565057,2.7014322
1421362535003.00,-3.2352223,-3.2082784,2.9518616
1421362535028.00,-3.337759,-2.6644592,2.090403
1421362535091.00,-3.477718,-2.1496797,1.4813195
1421362535092.00,-3.1258,-0.92717195,1.315165
1421362535092.00,-3.3061748,-1.0746154,0.8861572
1421362535103.00,-3.2403116,-2.9157865,0.22917344
1421362535123.00,-3.4015265,-6.6401916,-2.9599447
1421362535143.00,-5.2298245,-15.362703,-13.463452
1421362535163.00,-4.415518,-19.007324,-17.636774
1421362535183.00,-3.5293608,-10.367291,-10.848091
1421362535203.00,-5.716313,-7.1462893,-4.6090655
1421362535223.00,-9.247919,-6.4839168,-1.0768607
1421362535243.00,-8.056696,-7.475904,-0.1646576
1421362535263.00,-6.40548,-10.499915,4.7692323
1421362535283.00,-7.2211337,-10.176588,4.3535466
1421362535303.00,-3.431614,-7.107819,1.8265017
1421362535323.00,-2.3311024,-5.4658837,4.190087
1421362535345.00,-3.0496082,-6.725963,6.0026674
1421362535426.00,-2.9696746,-9.799971,6.5062203
1421362535427.00,-0.5734575,-14.082116,1.0629396
1421362535427.00,0.49741563,-12.731625,-2.2586532
1421362535428.00,-1.2135265,-9.900711,0.7373666
1421362535443.00,-2.8993208,-8.017628,1.6643889
1421362535463.00,-4.440516,-7.664212,0.07005432
1421362535483.00,-4.4488983,-8.132289,-1.1954141
1421362535503.00,-3.1232553,-8.278235,-1.0229727
1421362535523.00,-2.3285577,-8.269853,-0.103285216
1421362535543.00,-1.9245479,-8.430768,0.6601273
1421362535565.00,-2.227069,-8.682096,1.1596385
1421362535583.00,-2.941533,-8.916508,0.8852591
1421362535603.00,-3.3579671,-9.504036,0.13082795
1421362535623.00,-3.194956,-10.088571,-0.7827223
1421362535643.00,-2.2993684,-10.181078,-2.1909938
1421362535668.00,-1.1602373,-11.178604,-2.6854157
1421362535765.00,-1.3054353,-11.825409,-0.35670823
1421362535769.00,-2.1065693,-11.895762,0.4843927
1421362535770.00,-2.18321,-12.821138,-1.7066011
1421362535770.00,-1.5217355,-13.687088,-2.741998
1421362535771.00,-2.5734484,-14.578783,-3.3747323
1421362535785.00,-1.9356248,-14.593902,-3.788472
1421362535804.00,-1.4870077,-14.418766,1.0445279
1421362535823.00,-3.597469,-11.609858,5.0928593
1421362535843.00,-5.3866982,-10.225387,4.485872
1421362535863.00,-7.988588,-11.922557,1.68789
1421362535883.00,-10.277478,-13.114827,-1.8685642
1421362535903.00,-8.186176,-11.553874,-4.0737786
1421362535923.00,-5.8877063,-10.725496,0.68377805
1421362535943.00,-4.003275,-10.552905,4.0891967
1421362535963.00,-3.041076,-8.731643,1.0289602
1421362535983.00,-2.8663893,-6.3475504,1.4307247
1421362536058.00,-2.5899143,-5.776338,2.9133916
1421362536058.00,-3.099305,-4.229455,2.7075696
1421362536059.00,-3.504662,-3.0828393,2.3858886
1421362536074.00,-3.6905754,-2.2526655,2.0056791
1421362536084.00,-3.5569034,-1.1029065,1.8779947
1421362536103.00,-3.3702416,0.040715333,1.6343014
1421362536123.00,-3.1952555,-1.387315,0.5942642
1421362536145.00,-2.7195446,-4.1954756,-1.3305831
1421362536166.00,-4.4426117,-11.279494,-10.835667
1421362536184.00,-3.6375856,-18.435064,-17.953217
1421362536203.00,-2.705474,-14.643898,-11.462414
1421362536223.00,-4.2448726,-6.998247,-6.9470534
1421362536243.00,-8.509504,-6.6618967,-2.2230272
1421362536266.00,-8.094717,-5.244943,-0.5417235
1421362536283.00,-7.7954893,-8.909323,0.37272492
1421362536303.00,-7.451355,-12.645703,3.8731956
1421362536324.00,-5.3016753,-12.932507,0.09520203
1421362536395.00,-1.7163309,-8.602012,2.962639
1421362536395.00,-1.941313,-6.7551527,4.8701224
1421362536396.00,-2.2903872,-6.12661,6.43422
1421362536408.00,-2.710264,-9.616452,5.1522856
1421362536423.00,-1.1837384,-13.042378,0.5164261
1421362536443.00,-0.31000534,-12.322525,-0.083376616
1421362536463.00,-1.8269508,-9.345217,0.35595977
1421362536483.00,-3.3883538,-7.7107654,0.7288344
1421362536504.00,-4.4021955,-7.808063,0.064964905
1421362536529.00,-3.8960981,-7.975116,-0.17842895
1421362536545.00,-2.599195,-8.481214,-0.27018815
1421362536564.00,-1.7333953,-8.706644,-0.028440857
1421362536585.00,-1.4953903,-8.567584,0.7283853
1421362536605.00,-2.0344193,-8.567883,0.8955876
1421362536625.00,-2.6586213,-8.974737,0.6749464
1421362536644.00,-3.2030392,-9.383388,0.09984238
1421362536664.00,-3.334466,-9.919272,-0.71326673
1421362536746.00,-2.8970754,-10.490635,-2.329007
1421362536746.00,-2.0818708,-11.143277,-2.896327
1421362536747.00,-1.7935703,-11.718532,-0.6593788
1421362536748.00,-2.0064275,-11.802806,0.36209702
1421362536763.00,-2.2773643,-12.543166,-1.1573932
1421362536790.00,-1.5581099,-13.626015,-1.1135345
1421362536803.00,-2.0549269,-15.23936,-1.4409037
1421362536823.00,-1.8884729,-14.891334,-3.4170942
1421362536844.00,-2.0441492,-13.406272,-1.0835967
1421362536864.00,-3.29405,-10.915152,2.5744963
1421362536884.00,-4.156407,-9.467213,4.79438
1421362536903.00,-5.338798,-10.395133,2.9624894
1421362536924.00,-8.692574,-12.372222,-0.97192883
1421362536943.00,-7.3449264,-12.919634,-4.276008
1421362536963.00,-4.6690907,-12.328663,0.38155654
1421362537017.00,-2.6211991,-11.41167,5.033283
1421362537017.00,-3.4440382,-8.960217,0.9782158
1421362537028.00,-3.4630485,-7.546108,0.90307206
1421362537043.00,-3.575914,-6.0576034,1.87545
1421362537064.00,-3.507955,-4.9361353,2.484234
1421362537083.00,-3.6269577,-4.0519238,2.5234525
1421362537104.00,-3.79895,-3.2852182,2.2267694
1421362537124.00,-3.7236567,-2.5710535,1.8791922
1421362537144.00,-3.5691779,-1.2458593,1.5795153
1421362537170.00,-3.4307158,-1.0702744,0.6288423
1421362537193.00,-3.0499077,-2.7047255,-0.9372011
1421362537204.00,-3.4275723,-5.609585,-4.229455
1421362537224.00,-5.1668057,-13.060191,-11.874956
1421362537244.00,-2.0179536,-18.694176,-17.646055
1421362537263.00,-2.5427623,-13.691578,-10.224788
1421362537283.00,-4.5729904,-9.226214,-4.2224193
1421362537336.00,-7.9522133,-7.6953473,-2.5662634
1421362537337.00,-8.784333,-10.562934,-2.3552024
1421362537348.00,-7.453301,-10.63254,5.817203
1421362537364.00,-6.354286,-8.708141,4.108506
1421362537386.00,-3.6568954,-5.0091834,2.7657986
1421362537403.00,-2.5017476,-5.7877145,4.7792616
1421362537424.00,-2.229314,-7.3826475,7.081474
1421362537443.00,-2.595752,-11.4818735,5.3179913
1421362537465.00,0.13112731,-15.007043,1.2828324
1421362537486.00,0.5255571,-12.043506,-2.5728498
1421362537505.00,-1.2569362,-9.069191,0.30596375
1421362537525.00,-3.3994308,-8.012987,2.0146606
1421362537545.00,-5.147945,-8.047116,1.0922786
1421362537563.00,-4.63571,-8.125104,0.24324417
1421362537583.00,-3.182382,-8.298892,-0.36793488
1421362537604.00,-1.9390677,-8.289462,0.2773732
1421362537626.00,-1.6582516,-8.278535,0.9993219
1421362537714.00,-2.205364,-8.3234415,1.8223104
1421362537715.00,-3.0418246,-8.550369,1.7372873
1421362537716.00,-3.621569,-9.18969,1.1573932
1421362537721.00,-3.4602044,-9.936487,-0.45969406
1421362537733.00,-2.5426126,-10.604697,-3.418591
1421362537745.00,-1.6525635,-11.790831,-3.8705013
1421362537763.00,-1.5602056,-12.287947,0.09250763
1421362537790.00,-2.8363018,-11.956536,1.1781999
1421362537804.00,-2.9166846,-12.607383,-2.1989274
1421362537824.00,-1.8342856,-13.383369,-3.6741097
1421362537844.00,-1.9309845,-14.861695,-2.6547294
1421362537864.00,-1.798959,-14.966178,-3.2846196
1421362537883.00,-0.55040544,-14.453943,-1.284928
1421362537904.00,-1.8693128,-12.1219425,4.105812
1421362537924.00,-3.7741017,-10.009385,6.6349525
1421362537943.00,-5.935607,-10.596464,3.1150222
1421362537964.00,-8.850495,-12.816498,-1.5483801
1421362538046.00,-7.66047,-13.165422,-4.1115003
1421362538047.00,-5.3140993,-11.299403,-1.7875828
1421362538048.00,-3.3281791,-11.513607,6.7928743
1421362538048.00,-3.3667986,-9.59849,3.3994308
1421362538063.00,-3.004552,-7.7555223,1.0150392
1421362538086.00,-2.956951,-6.202502,2.4230113
1421362538104.00,-3.2850688,-5.1196537,2.7430458
1421362538123.00,-3.5890865,-4.334387,2.646796
1421362538144.00,-3.993695,-3.3891022,2.5288413
1421362538163.00,-3.9184017,-2.738705,2.2861958
1421362538184.00,-3.6073484,-1.5341597,1.4676979
1421362538206.00,-3.2081287,-1.5941849,0.3820056
1421362538225.00,-3.0100906,-2.687661,-0.99363375
1421362538244.00,-3.7348833,-5.7886124,-3.6754568
1421362538264.00,-5.1989884,-12.47865,-9.985286
1421362538284.00,-3.3268318,-18.61499,-14.183306
1421362538342.00,-2.6140141,-14.010415,-10.823543
1421362538343.00,-3.3693435,-8.838969,-6.24172
1421362538344.00,-5.721402,-7.023694,-1.932631
1421362538363.00,-5.7296352,-4.114943,-0.59411454
1421362538383.00,-4.8927255,-4.859794,2.9092002
1421362538403.00,-8.79032,-9.659264,3.7357814
1421362538424.00,-10.518926,-16.448694,1.0377918
1421362538443.00,-1.0921289,-12.777729,-0.21240829
1421362538463.00,-0.592917,-5.7676563,3.9517822
1421362538484.00,-1.7396823,-2.888244,6.4538293
1421362538510.00,-3.6375856,-6.800209,5.702841
1421362538526.00,-2.5493486,-12.896881,5.598508
1421362538547.00,0.31943572,-14.544804,-2.0357666
1421362538563.00,0.613125,-11.1039095,-3.018922
1421362538583.00,-2.1321661,-8.797955,-0.58363634
1421362538608.00,-4.258794,-7.5041947,0.2665956
1421362538673.00,-4.585564,-7.3528595,0.85816544
1421362538674.00,-3.4569113,-7.536228,0.9821077
1421362538675.00,-2.6964927,-7.8736267,-0.09729767
1421362538686.00,-2.8521688,-8.601712,-0.94423646
1421362538704.00,-3.4226327,-8.900492,-0.30611342
1421362538724.00,-3.565286,-9.195079,0.7458989
1421362538743.00,-3.6242633,-9.392967,1.1545491
1421362538764.00,-2.6550288,-9.905052,-0.4324507
1421362538784.00,-1.7212706,-11.131003,-3.1249018
1421362538803.00,-1.7859361,-12.075089,-2.4080424
1421362538824.00,-1.8607805,-11.867921,0.16660355
1421362538843.00,-2.088457,-12.630884,-0.024998017
1421362538864.00,-1.3678555,-13.675562,-1.2491524
1421362538888.00,-1.1229647,-14.91214,-1.369053
1421362538904.00,-1.660497,-15.624808,-1.9061362
1421362538924.00,-2.180815,-14.181958,-2.1983285
1421362538997.00,-3.1442115,-11.0669365,1.3406122
1421362538997.00,-4.1194334,-9.464219,5.6399717
1421362538998.00,-5.5616846,-10.14201,4.037554
1421362539013.00,-8.234975,-12.487183,-0.13442047
1421362539024.00,-8.0105915,-12.700339,-2.9344976
1421362539044.00,-5.1711464,-11.298804,-2.444267
1421362539064.00,-2.8774662,-11.297157,4.9262557
1421362539084.00,-2.987188,-10.753787,3.597469
1421362539104.00,-2.9846435,-8.7527485,1.744622
1421362539125.00,-2.9385393,-6.9668126,1.8458116
1421362539144.00,-3.0708642,-5.62635,2.5469537
1421362539164.00,-3.3790731,-4.9201183,2.5460556
1421362539183.00,-3.8371208,-3.8278399,2.1588106
1421362539205.00,-3.9064264,-3.2943494,2.0065773
1421362539225.00,-3.5170863,-2.7644513,1.8067429
1421362539244.00,-3.4711318,-1.4724879,1.2338841
1421362539264.00,-3.2588732,-2.0981867,-0.13831238
1421362539322.00,-2.9731174,-3.9377115,-2.074087
1421362539323.00,-3.9957907,-8.352631,-7.5047936
1421362539325.00,-5.808222,-17.367634,-15.104341
1421362539344.00,-1.9558328,-18.43731,-14.607822
1421362539364.00,-2.3697221,-9.705218,-8.1617775
1421362539383.00,-4.7909374,-7.84309,-2.6997857
1421362539403.00,-6.363417,-5.0278945,-2.2167404
1421362539426.00,-5.506599,-5.8071737,0.82493454
1421362539450.00,-7.8594065,-8.380772,5.078639
1421362539464.00,-8.618927,-14.274167,1.2482543
1421362539484.00,-1.8887722,-11.2655735,1.7181271
1421362539505.00,-0.8152048,-7.24209,3.7378771
1421362539524.00,-2.3219714,-5.7464004,6.181246
1421362539544.00,-3.559448,-7.377109,5.2898498
1421362539564.00,-2.5560846,-11.635604,2.6879604
1421362539584.00,-0.07634125,-13.518987,-0.18636246
1421362539671.00,-0.49457154,-11.088491,-0.49397278
1421362539671.00,-2.2378464,-8.745863,0.5803432
1421362539672.00,-4.0987763,-7.8490777,0.033081207
1421362539672.00,-4.8921266,-7.622898,0.0199086
1421362539684.00,-3.9119651,-7.7353144,0.13501923
1421362539704.00,-2.415078,-7.839797,0.41418868
1421362539724.00,-1.6193326,-8.177794,0.23650818
1421362539744.00,-1.8594333,-8.55965,0.8797206
1421362539764.00,-2.583777,-9.25705,1.1645782
1421362539784.00,-2.8767178,-9.643546,0.5604346
1421362539804.00,-2.767894,-10.072853,-1.1705658
1421362539824.00,-1.5685881,-10.935659,-4.1549096
1421362539843.00,-1.1160791,-12.090957,-2.566862
1421362539864.00,-1.6106507,-12.140803,1.2154725
1421362539884.00,-1.626817,-12.163856,0.6593788
1421362539904.00,-1.3862672,-13.072765,-2.8036697
1421362539970.00,-1.1436218,-13.476176,-2.4019053
1421362539971.00,-1.8061441,-14.260245,-2.6508377
1421362539972.00,-1.3789325,-14.473402,-3.687432
1421362539984.00,-0.87927157,-14.589261,-0.20971389
1421362540004.00,-3.0421238,-12.109368,5.4365444
1421362540024.00,-5.527705,-10.327773,5.071604
1421362540044.00,-7.749235,-11.527977,2.2155428
1421362540064.00,-9.604627,-12.817845,-1.8922151
1421362540084.00,-7.754175,-12.806768,-3.6708164
1421362540104.00,-4.432133,-10.920391,1.1526031
1421362540124.00,-3.5732195,-10.313703,3.4552648
1421362540144.00,-3.3150065,-8.919353,1.7745597
1421362540165.00,-2.8803103,-6.9957023,1.8089882
1421362540185.00,-2.5979974,-5.5269566,2.6740394
1421362540204.00,-2.691104,-4.5443997,2.9961693
1421362540224.00,-3.2841706,-3.570974,2.975213
1421362540286.00,-3.4491274,-2.8113039,2.0344193
1421362540286.00,-3.4242792,-1.9351758,1.7082477
1421362540287.00,-3.2078292,-0.5522017,1.5521224
1421362540305.00,-3.4221835,-1.4956897,0.78856015
1421362540324.00,-3.044519,-4.644841,-0.5210664
1421362540344.00,-3.9261854,-10.115365,-6.837631
1421362540364.00,-6.1343937,-17.926271,-17.039217
1421362540384.00,-3.3985326,-15.737225,-15.22499
1421362540404.00,-2.8897407,-6.961274,-8.236173
1421362540430.00,-4.4577303,-6.643934,-3.333867
1421362540444.00,-6.6868944,-5.726342,-0.69829786
1421362540464.00,-5.2000365,-6.0583515,1.6308587
1421362540484.00,-3.8309834,-10.525362,1.8980529
1421362540504.00,-7.118148,-14.230457,1.2711567
1421362540524.00,-4.461173,-14.072536,-1.3024416
1421362540545.00,-1.6772621,-6.530919,3.1485527
1421362540564.00,-2.652634,-4.113596,5.4175344
1421362540584.00,-3.8570292,-4.916376,6.146518
1421362540666.00,-4.054319,-9.051976,4.697681
1421362540667.00,-1.5118561,-13.489798,1.5343094
1421362540668.00,0.59097105,-12.875924,-1.0674303
1421362540669.00,-1.3406122,-9.930349,0.6936575
1421362540684.00,-3.186873,-8.315508,0.8162526
1421362540704.00,-4.440516,-7.9174857,0.27138564
1421362540724.00,-4.3402243,-8.241262,0.03891907
1421362540747.00,-3.1611264,-8.121212,-0.047451325
1421362540769.00,-1.9758911,-7.9944253,0.18351837
1421362540785.00,-1.6805552,-8.231233,0.42302033
1421362540804.00,-1.6414865,-9.12712,0.5590874
1421362540824.00,-1.9342777,-9.688752,0.19309846
1421362540844.00,-2.3143373,-10.109528,-0.51717454
1421362540864.00,-1.9218535,-10.346784,-2.217339
1421362540937.00,-1.511407,-10.590327,-3.5069075
1421362540937.00,-1.1506572,-11.1601925,-0.7012917
1421362540938.00,-0.7189549,-11.136242,2.8936327
1421362540950.00,-1.2243041,-11.984379,0.83376616
1421362540964.00,-1.6825012,-12.937147,-2.3816972
1421362540984.00,-1.8854791,-13.511652,-1.91871
1421362541004.00,-2.7996283,-14.168187,-2.8163934
1421362541024.00,-2.4165747,-14.506484,-3.4001794
1421362541044.00,-2.212549,-14.46981,-1.3939013
1421362541065.00,-3.329676,-12.030632,3.6545005
1421362541086.00,-5.050198,-10.429861,5.762866
1421362541104.00,-6.8491573,-11.587554,3.5552568
1421362541124.00,-9.877958,-12.389885,-0.54247195
1421362541146.00,-8.79526,-12.08452,-4.397256
1421362541164.00,-5.9962306,-10.367591,-1.0469229
1421362541184.00,-3.9838157,-10.189461,3.6339931
1421362541204.00,-3.319946,-9.29043,1.726809
1421362541275.00,-2.0082238,-7.118896,1.099763
1421362541276.00,-2.4059467,-5.7230487,1.8035994
1421362541276.00,-2.91414,-4.882397,2.7749295
1421362541286.00,-3.3232393,-3.8529878,2.6903553
1421362541305.00,-3.4569113,-3.5175352,1.8185682
1421362541324.00,-3.393144,-2.5918603,1.7515078
1421362541344.00,-3.201692,-1.2522959,1.4166541
1421362541364.00,-3.2608192,-1.5655943,0.5547464
1421362541391.00,-2.861749,-3.386857,-0.56492525
1421362541410.00,-2.722239,-7.6706486,-5.911058
1421362541424.00,-4.4069858,-17.07604,-16.85989
1421362541444.00,-2.600542,-18.18703,-14.910793
1421362541464.00,-1.6360977,-7.999066,-8.056247
1421362541484.00,-4.221821,-6.3045897,-4.2882824
1421362541504.00,-8.396339,-6.024372,-0.96040285
1421362541524.00,-7.604786,-5.3106565,-0.75562865
1421362541590.00,-7.272327,-7.36229,4.1814046
1421362541591.00,-9.2609415,-13.177547,1.2217593
1421362541591.00,-4.746629,-14.986535,0.4022136
1421362541604.00,-1.2582834,-10.722353,2.9023147
1421362541624.00,-1.924997,-6.6036677,5.0985475
1421362541644.00,-2.8178902,-5.7193065,5.7086787
1421362541664.00,-3.1379247,-7.930209,4.0083647
1421362541685.00,-2.1290226,-11.244467,0.34338593
1421362541704.00,-1.3754897,-12.451707,0.2282753
1421362541724.00,-1.26472,-11.0161915,1.1115885
1421362541745.00,-2.0236418,-8.957223,0.7445517
1421362541769.00,-2.5126748,-7.952962,-0.16316071
1421362541784.00,-2.9237201,-8.104746,-0.085472256
1421362541804.00,-2.623145,-8.521929,0.46358597
1421362541825.00,-2.107318,-8.586893,0.07694
1421362541844.00,-1.7910255,-8.707692,0.29548553
1421362541929.00,-1.8651215,-9.051078,0.3662883
1421362541930.00,-1.9477496,-9.1765175,0.1911525
1421362541931.00,-1.9333795,-9.715846,-0.20627105
1421362541932.00,-1.7163309,-9.788295,-0.3356021
1421362541944.00,-0.86954176,-10.38241,-0.84888476
1421362541964.00,0.18666184,-11.373948,-1.5461348
1421362541984.00,0.33260834,-11.853251,-1.4997313
1421362542004.00,-1.0999128,-11.486813,0.29832962
1421362542024.00,-3.028652,-11.820768,1.287323
1421362542044.00,-3.9116657,-11.615695,-1.9423609
1421362542065.00,-2.4849825,-12.692855,-3.315755
1421362542084.00,-1.5500267,-14.008919,-3.7021015
1421362542105.00,-0.95890594,-13.990806,-3.9320233
1421362542124.00,0.07708969,-14.285394,-0.9330098
1421362542145.00,-1.1478131,-13.761633,4.6268783
1421362542164.00,-3.4988241,-11.276501,4.0803647
1421362542232.00,-5.109325,-11.161689,2.3309526
1421362542233.00,-8.96396,-12.374167,0.60010207
1421362542233.00,-8.4729805,-12.718302,-2.458188
1421362542248.00,-5.6073394,-11.743829,1.2725039
1421362542264.00,-3.2159126,-9.623637,0.89229447
1421362542286.00,-2.9648845,-9.152866,0.943488
1421362542304.00,-2.7048752,-8.162676,1.8220111
1421362542324.00,-2.366878,-6.1010127,1.981729
1421362542344.00,-2.6830206,-4.8654823,2.6051824
1421362542364.00,-3.032843,-3.8010457,2.8285182
1421362542386.00,-3.1606774,-2.8229797,2.330354
1421362542408.00,-3.42862,-1.8282981,1.7360898
1421362542424.00,-3.3389566,-0.88196594,1.6516653
1421362542444.00,-3.6943176,-1.4281801,0.8972342
1421362542464.00,-3.4615517,-3.4917889,-0.7247928
1421362542484.00,-4.3334885,-9.0132065,-6.043682
1421362542504.00,-7.1365595,-17.159567,-16.314425
1421362542525.00,-4.3210645,-17.053587,-16.528929
1421362542594.00,-3.6115398,-7.9035645,-9.563911
1421362542594.00,-5.58788,-6.4849644,-2.1844075
1421362542595.00,-5.998027,-5.655539,-0.9063652
1421362542606.00,-5.334906,-7.178323,0.02350113
1421362542625.00,-7.3637867,-9.693393,5.2545233
1421362542645.00,-8.83358,-14.448255,2.2424867
1421362542664.00,-2.0913012,-10.712772,1.8339862
1421362542686.00,-1.2509487,-7.3476205,4.525988
1421362542707.00,-1.5905924,-6.1255617,7.203021
1421362542725.00,-2.804418,-8.281528,5.974975
1421362542748.00,-1.4019846,-12.112661,2.4134312
1421362542765.00,0.7890093,-13.10899,-0.3275189
1421362542786.00,-0.7643106,-10.379565,-0.24474105
1421362542805.00,-2.773732,-8.62207,0.5510042
1421362542830.00,-4.3834844,-7.6603203,-0.3966751
1421362542845.00,-4.4518924,-7.8447366,-0.09939331
1421362542933.00,-3.4200878,-7.5871224,0.08187973
1421362542933.00,-1.968257,-7.4500074,0.29039612
1421362542934.00,-1.4256353,-8.141121,0.34578094
1421362542935.00,-1.4156063,-9.116792,0.09699829
1421362542946.00,-1.8787432,-9.6405525,-0.47960266
1421362542965.00,-2.6463468,-9.723181,-0.56627244
1421362542984.00,-2.7427464,-9.964029,-0.6044431
1421362543005.00,-1.6643889,-10.582543,-1.8022522
1421362543029.00,-0.6915619,-11.837384,-1.9962487
1421362543044.00,-1.314716,-12.224628,0.3544629
1421362543065.00,-1.9963984,-11.8300495,0.73691756
1421362543085.00,-1.8917661,-12.577445,-1.9658619
1421362543105.00,-1.0907817,-13.227543,-2.408641
1421362543124.00,-1.5459851,-13.603262,-2.5237517
1421362543145.00,-2.3980134,-14.237642,-4.252357
1421362543218.00,-1.4922469,-13.766722,-1.6706758
1421362543219.00,-1.714834,-13.352683,4.4014473
1421362543219.00,-3.3813186,-11.017389,6.303392
1421362543228.00,-5.623506,-10.925331,3.3162038
1421362543245.00,-7.940687,-12.648996,0.55833894
1421362543264.00,-9.290131,-13.726306,-3.2689023
1421362543284.00,-7.110214,-11.263627,-3.8110747
1421362543304.00,-4.466412,-9.393716,4.599635
1421362543324.00,-3.1260993,-9.425899,2.044299
1421362543345.00,-2.4492068,-7.770491,0.95636123
1421362543364.00,-2.0898042,-5.9993744,1.9287392
1421362543384.00,-2.424508,-4.5951443,2.7327173
1421362543404.00,-2.9888346,-3.4328115,2.857408
1421362543424.00,-3.304079,-2.678979,2.4975562
1421362543444.00,-3.264711,-2.4167244,2.1128564
1421362543469.00,-3.282973,-1.1975098,1.5368541
1421362543485.00,-3.54418,-1.0235715,0.67734146
1421362543504.00,-3.2750394,-2.9591963,-0.16016693
1421362543568.00,-3.8245468,-7.837402,-5.2862573
1421362543568.00,-6.675668,-16.743132,-16.024477
1421362543569.00,-4.737049,-18.472786,-16.087048
1421362543584.00,-3.3337176,-8.009844,-10.254276
1421362543604.00,-5.338948,-5.63593,-3.4600549
1421362543625.00,-5.965395,-5.6015015,-2.893483
1421362543644.00,-5.9218354,-7.3030133,3.0548475
1421362543666.00,-8.203241,-10.535542,4.436624
1421362543688.00,-8.811875,-14.569353,1.5501764
1421362543705.00,-3.0274544,-9.455537,2.4989035
1421362543725.00,-2.2989194,-6.7541046,5.82828
1421362543745.00,-2.4712112,-6.8820887,7.8963795
1421362543765.00,-1.705254,-9.340426,7.241192
1421362543785.00,0.4022136,-13.249547,0.22273682
1421362543805.00,0.8879535,-12.021651,-1.1638298
1421362543826.00,-1.567241,-9.837243,0.41837996
1421362543896.00,-3.3103662,-8.520282,0.29518616
1421362543897.00,-3.9462438,-8.32853,0.1565744
1421362543897.00,-4.3159747,-8.194709,-0.8587642
1421362543908.00,-3.7187169,-7.9171863,-1.3781841
1421362544001.00,-2.7818153,-7.82872,-0.4340973
1421362544004.00,-2.0773802,-8.310418,0.69470537
1421362544005.00,-1.7842896,-8.713829,1.7774038
1421362544005.00,-1.4452446,-8.980575,1.7339941
1421362544006.00,-1.1768527,-9.754765,0.6399193
1421362544025.00,-0.8081694,-10.474618,-0.5204677
1421362544056.00,-0.37766466,-10.725646,-2.3888824
1421362544070.00,-1.2240046,-11.446097,-3.3819172
1421362544089.00,-2.615062,-11.52169,-1.3736933
1421362544105.00,-2.9072542,-11.495345,0.89109695
1421362544125.00,-2.404899,-12.700489,-0.8044272
1421362544145.00,-2.194287,-13.359119,-2.610272
1421362544220.00,-2.4795938,-15.123501,-3.6983593
1421362544221.00,-1.945654,-14.913637,-4.2472677
1421362544221.00,-1.0196795,-13.797857,-0.3598517
1421362544232.00,-1.1725117,-12.700639,4.849166
1421362544244.00,-2.625091,-10.418634,4.51057
1421362544264.00,-5.511838,-11.633957,1.2025992
1421362544285.00,-9.521251,-13.425731,-1.5102096
1421362544304.00,-8.245604,-13.140724,-3.1190639
1421362544326.00,-5.5125866,-12.283307,2.938689
1421362544347.00,-3.309468,-10.470277,2.5676107
1421362544364.00,-3.061284,-8.167017,0.5852829
1421362544385.00,-2.5327332,-6.652915,1.4111155
1421362544405.00,-1.9281404,-5.0225058,2.3179297
1421362544425.00,-2.7180479,-3.4108071,3.1748977
1421362544444.00,-2.9678783,-2.530937,3.1611264
1421362544465.00,-3.0999038,-2.0237916,2.5840764
1421362544528.00,-3.103646,-0.8696915,2.0190015
1421362544528.00,-3.195405,-0.16525635,0.9193881
1421362544529.00,-3.126698,-1.5917898,-0.02679428
1421362544545.00,-3.340603,-5.698799,-3.355572
1421362544571.00,-6.51116,-15.38815,-14.602434
1421362544585.00,-5.5688696,-19.010767,-17.549805
1421362544604.00,-4.2914257,-9.856853,-10.302176
1421362544625.00,-5.8454943,-5.319638,-2.9635372
1421362544645.00,-6.586603,-3.699856,-2.772684
1421362544667.00,-6.148464,-5.8209453,3.2395632
1421362544685.00,-8.173154,-11.753109,3.5182836
1421362544705.00,-9.129814,-15.56583,2.298171
1421362544725.00,-2.6312284,-9.331445,2.8416908
1421362544750.00,-1.9857706,-6.2530966,5.808072
1421362544765.00,-2.3079007,-6.3704524,7.850724
1421362544784.00,-1.9743942,-9.692494,7.7968364
1421362544805.00,-0.18935624,-14.120586,2.7569668
1421362544868.00,1.0645862,-12.773088,-2.4590864
1421362544868.00,-1.1247611,-10.09845,-0.44382706
1421362544869.00,-2.9987142,-8.3869095,0.72898406
1421362544885.00,-4.393963,-7.67005,-0.3252736
1421362544905.00,-4.8473697,-7.7483373,-1.0223739
1421362544925.00,-3.276237,-7.785909,-0.7566765
1421362544946.00,-1.5103592,-7.6660085,-0.105680235
1421362544966.00,-0.9888437,-8.0740595,0.520318
1421362544986.00,-1.5605049,-8.901689,0.47406417
1421362545007.00,-2.2180874,-9.25256,0.04790039
1421362545025.00,-2.7175987,-9.620194,-0.8741821
1421362545045.00,-2.5078847,-10.224937,-1.3443544
1421362545065.00,-1.4028827,-11.182796,-2.80831
1421362545085.00,-0.7364685,-12.067006,-2.5156686
1421362545105.00,-1.2082874,-11.557616,0.7656578
1421362545125.00,-1.8809885,-11.363769,2.0616627
1421362545186.00,-1.5923886,-12.804672,-1.4877563
1421362545190.00,-0.9017249,-13.853991,-3.5112484
1421362545192.00,-1.567241,-14.941628,-1.8203645
1421362545205.00,-1.7696201,-15.548167,-2.2839506
1421362545225.00,-0.93061477,-14.313984,-1.3278886
1421362545245.00,-2.6137147,-11.677815,2.233655
1421362545265.00,-4.127367,-9.227262,5.170548
1421362545285.00,-5.763914,-10.966794,3.237318
1421362545305.00,-7.8944335,-12.76725,0.07948471
1421362545325.00,-7.034771,-13.5715275,-3.3028817
1421362545345.00,-4.6493316,-11.341465,-2.1624033
1421362545365.00,-1.7851877,-11.6700325,6.462062
1421362545385.00,-2.2074594,-9.662257,1.9142194
1421362545406.00,-2.2990692,-7.644304,1.7501606
1421362545426.00,-2.1456382,-6.3682075,3.0371842
1421362545445.00,-2.7017317,-4.9626303,2.717
1421362545503.00,-3.6051033,-3.974984,2.199077
1421362545503.00,-3.7766464,-3.1392717,2.2682333
1421362545514.00,-3.6317477,-2.6375153,2.068249
1421362545525.00,-3.517685,-1.7747095,1.40902
1421362545545.00,-3.7359312,-1.7085471,0.5228627
1421362545565.00,-3.7256026,-3.4009278,-1.1713142
1421362545585.00,-4.176465,-7.008276,-5.423073
1421362545605.00,-6.195317,-15.022311,-13.417349
1421362545627.00,-3.1379247,-18.961071,-15.683336
1421362545650.00,-2.9876373,-11.974648,-9.834399
1421362545665.00,-3.639382,-7.9080553,-3.6824923
1421362545685.00,-6.3378205,-6.89092,-2.8657906
1421362545707.00,-7.3976164,-11.370206,-1.7486637
1421362545726.00,-7.278764,-10.356364,7.547455
1421362545745.00,-6.3493466,-5.945486,5.728288
1421362545765.00,-4.2390347,-4.236041,3.6401303
1421362545883.00,-3.864813,-7.1229377,5.153783
1421362545884.00,-1.6093035,-10.394534,6.267317
1421362545884.00,-0.028740235,-12.925322,4.252956
1421362545885.00,0.91100556,-13.5836525,-0.8690927
1421362545885.00,-0.029937744,-10.921289,1.0436298
1421362545886.00,-1.7441729,-8.787027,1.3593233
1421362545907.00,-2.2171893,-8.326585,0.96324694
1421362545929.00,-2.872377,-8.746911,-0.6129753
1421362545945.00,-2.8562105,-8.572224,-0.7813751
1421362545968.00,-2.5454566,-8.486452,-0.73302567
1421362545985.00,-2.0637584,-7.96823,-0.37736526
1421362546005.00,-2.191892,-7.8550653,0.511636
1421362546027.00,-2.8214827,-8.38661,1.153651
1421362546045.00,-3.3418007,-9.293574,1.1567944
1421362546066.00,-3.2927027,-9.8221245,0.40281236
1421362546087.00,-2.416425,-10.355316,-1.7399817
1421362546107.00,-0.7206015,-11.366913,-4.156706
1421362546174.00,-0.23965164,-11.911031,-1.905238
1421362546175.00,-1.0690769,-11.751313,1.5525714
1421362546175.00,-1.8996996,-12.586876,-0.5734575
1421362546185.00,-1.4817686,-13.279485,-4.1580534
1421362546205.00,-1.3421091,-14.571598,-3.06323
1421362546225.00,-1.7657281,-15.675702,-2.6622138
1421362546245.00,-0.7921527,-14.773528,-1.592688
1421362546265.00,-1.9242485,-13.514048,4.667145
1421362546285.00,-4.4869194,-10.14665,5.0222063
1421362546306.00,-6.903494,-11.0123,1.9955003
1421362546325.00,-10.113568,-12.95002,-1.2449611
1421362546346.00,-8.454868,-12.66651,-3.9077737
1421362546371.00,-5.419929,-11.082205,-0.8801697
1421362546388.00,-2.6188042,-10.640324,6.222261
1421362546406.00,-2.2194347,-9.899364,0.9662407
1421362546427.00,-1.9267932,-8.287067,1.8492545
1421362546507.00,-1.9835253,-6.3358746,2.7388544
1421362546508.00,-2.4508533,-4.6701384,2.9642859
1421362546508.00,-3.070415,-3.127147,3.0714629
1421362546509.00,-2.9991632,-2.5750952,2.7966344
1421362546525.00,-3.1232553,-1.8519489,2.1311183
1421362546545.00,-3.3808694,-0.9517209,1.3762381
1421362546565.00,-3.6091447,-1.201701,0.470771
1421362546585.00,-3.3587155,-3.355123,-0.3993695
1421362546606.00,-4.2098455,-8.269703,-6.310577
1421362546625.00,-6.1393332,-17.23965,-16.859291
1421362546646.00,-3.044519,-16.990417,-15.150146
1421362546666.00,-3.0148804,-7.292086,-8.104446
1421362546693.00,-5.7425084,-5.8368125,-3.3817675
1421362546706.00,-7.2437367,-4.059408,-1.4765296
1421362546725.00,-6.238427,-4.69349,1.6530125
1421362546745.00,-8.4045725,-10.147847,4.476591
1421362546814.00,-10.092912,-18.050364,-2.3017635
1421362546814.00,-0.69994444,-11.861184,2.9600945
1421362546815.00,-0.98824495,-6.109096,6.023624
1421362546825.00,-2.2602997,-4.792434,7.8192897
1421362546845.00,-2.6195526,-7.3883357,7.215745
1421362546865.00,-0.8107141,-13.216316,2.8797116
1421362546885.00,1.169967,-13.834531,-1.7778529
1421362546905.00,-0.41837996,-10.900332,-0.3264711
1421362546927.00,-2.855462,-8.611443,0.37826338
1421362546945.00,-4.495601,-7.325317,-0.7244934
1421362546965.00,-4.660558,-7.373367,-0.48544052
1421362546986.00,-3.2006443,-7.580985,-0.017363891
1421362547006.00,-1.4482384,-7.9920306,0.15552658
1421362547026.00,-0.7710466,-8.528215,0.30701157
1421362547047.00,-1.1244617,-9.386531,0.22647904
1421362547066.00,-1.7110918,-9.855057,-0.009131012
1421362547087.00,-2.4828868,-9.816886,-0.2866539
1421362547164.00,-2.396217,-9.849368,-0.782872
1421362547165.00,-1.3230987,-10.683284,-2.4177723
1421362547165.00,-0.068258055,-11.833043,-2.597249
1421362547166.00,-1.0214758,-11.578722,0.068407744
1421362547186.00,-2.4828868,-11.539204,0.72778654
1421362547206.00,-1.9511925,-12.551399,-1.4510825
1421362547225.00,-0.7114705,-13.812826,-3.3932936
1421362547246.00,-1.3386662,-15.077995,-2.3650818
1421362547265.00,-1.3940511,-15.015276,-2.5146208
1421362547285.00,-0.8864566,-14.147829,-0.13307327
1421362547305.00,-1.8835331,-11.803255,4.7138476
1421362547326.00,-3.9835162,-10.172696,4.191883
1421362547346.00,-6.0613456,-11.687396,1.3052857
1421362547366.00,-8.8581295,-13.429323,-1.6230748
1421362547387.00,-6.6041164,-13.033397,-3.1835797
1421362547406.00,-3.6706667,-12.230467,2.8997698
1421362547487.00,-1.5985259,-11.178754,3.9770796
1421362547488.00,-1.73115,-8.813672,1.0951227
1421362547489.00,-1.9438577,-7.324718,2.257755
1421362547489.00,-2.2544618,-5.649552,2.7881021
1421362547506.00,-2.8919861,-4.4349775,3.0111382
1421362547525.00,-3.3651521,-3.3626075,2.7277775
1421362547545.00,-3.23642,-2.9193792,2.639012
1421362547569.00,-3.1382241,-2.088457,2.016756
1421362547590.00,-3.3721876,-1.3525872,1.0591974
1421362547616.00,-3.1961536,-1.8453625,-0.30446684
1421362547634.00,-3.5115478,-4.9334407,-3.8193078
1421362547646.00,-5.388644,-12.246932,-10.487192
1421362547666.00,-5.0487013,-18.536404,-14.943874
1421362547685.00,-2.55354,-14.627731,-11.966116
1421362547705.00,-2.5399182,-8.376132,-5.725294
1421362547725.00,-3.5128949,-6.089936,-2.3302042
1421362547794.00,-3.409909,-3.4200878,-2.5188122
1421362547794.00,-2.4860303,-4.5677514,1.4289285
1421362547795.00,-7.2259235,-9.118138,5.967191
1421362547805.00,-10.97817,-17.911303,1.099763
1421362547826.00,-2.0748353,-14.182258,0.60683805
1421362547846.00,-2.1719832,-6.6680336,3.6371365
1421362547871.00,-4.219126,-2.7638526,5.5094433
1421362547887.00,-4.386927,-4.769981,5.9125547
1421362547905.00,-2.5285418,-11.636501,6.4756837
1421362547929.00,2.1439915,-15.573764,-0.22393432
1421362547951.00,1.8494041,-11.806698,-1.497935
1421362547970.00,-1.5233821,-9.325607,-0.72793627
1421362547986.00,-3.645519,-7.5004525,-1.1153307
1421362548006.00,-4.1076083,-7.085665,0.07484436
1421362548025.00,-3.6054025,-7.44417,1.069526
1421362548046.00,-2.1829107,-8.084239,0.7485933
1421362548066.00,-1.391207,-8.560847,-0.11496094
1421362548160.00,-1.7971628,-9.131761,0.64635587
1421362548160.00,-2.5728498,-9.230704,1.0120454
1421362548161.00,-2.7921438,-9.865086,-0.038320314
1421362548161.00,-2.1056712,-10.674004,-1.6848962
1421362548178.00,-0.61117905,-11.535761,-3.9314246
1421362548186.00,0.14744338,-12.088263,-1.7937199
1421362548208.00,-0.5134323,-11.502979,1.1960129
1421362548227.00,-1.5554155,-12.259207,-0.50385225
1421362548246.00,-1.2316388,-13.773607,-3.5485208
1421362548267.00,-0.63108766,-15.303726,-2.6601183
1421362548287.00,-1.1674223,-15.115118,-1.9266435
1421362548307.00,-0.43724075,-14.659915,-0.6081853
1421362548325.00,-2.0996838,-12.625794,2.8773165
1421362548346.00,-4.212989,-9.473799,3.273393
1421362548365.00,-5.9347086,-10.445279,1.3205539
1421362548433.00,-8.655601,-13.099858,-1.3552817
1421362548434.00,-7.6962457,-13.163476,-2.5589287
1421362548434.00,-5.0226555,-12.218941,-0.04101471
1421362548446.00,-2.0172052,-11.914324,5.6154227
1421362548466.00,-1.4992822,-9.707613,1.282982
1421362548485.00,-1.8636246,-7.45839,0.9187894
1421362548506.00,-1.9702029,-5.8264837,2.8861482
1421362548525.00,-2.2104533,-4.7792616,3.3395553
1421362548546.00,-3.0554461,-3.522475,3.5169365
1421362548565.00,-3.3407528,-2.828069,2.5556355
1421362548585.00,-3.378175,-2.421215,1.7402811
1421362548606.00,-3.3560212,-1.3501923,0.79200304
1421362548626.00,-3.5444791,-1.7116905,0.007783813
1421362548645.00,-3.7755985,-4.3198667,-1.3362712
1421362548666.00,-4.2830434,-9.677076,-6.3795834
1421362548689.00,-6.2074413,-17.560432,-14.796131
1421362548708.00,-3.4663417,-17.801432,-15.047309
1421362548726.00,-2.6893075,-8.860225,-9.28609
1421362548802.00,-4.0876994,-6.712192,-2.806364
1421362548803.00,-4.763544,-4.725224,-0.511636
1421362548803.00,-4.1171885,-5.2260823,-1.6742684
1421362548815.00,-4.4006987,-8.2478485,5.367987
1421362548826.00,-10.207573,-14.21489,4.7671366
1421362548846.00,-4.4382706,-14.40739,0.40520737
1421362548866.00,-0.64725405,-7.9718227,2.5331821
1421362548887.00,-2.3887327,-5.064568,6.053412
1421362548906.00,-3.7006044,-5.782625,6.3804817
1421362548926.00,-2.5553362,-10.647359,5.1759367
1421362548946.00,1.0955718,-14.416821,0.39083725
1421362548966.00,1.1445199,-12.326567,-1.1002121
1421362548986.00,-1.1868819,-9.359886,0.6279442
1421362549005.00,-3.3361125,-7.816595,-0.56148237
1421362549026.00,-3.9594164,-7.2269716,-0.05763016
1421362549046.00,-3.6179764,-7.408544,0.7044351
1421362549107.00,-2.49097,-7.4519534,0.59351575
1421362549108.00,-1.7464184,-8.385712,0.047301635
1421362549108.00,-1.6467257,-9.436526,-0.12753479
1421362549126.00,-1.8253043,-10.159523,0.1896556
1421362549146.00,-2.0917501,-10.325678,-0.82972455
1421362549166.00,-1.7447717,-10.174941,-1.8031503
1421362549186.00,-0.4897815,-10.76217,-2.4965086
1421362549208.00,0.11526032,-11.615695,-0.85846484
1421362549231.00,-1.0961705,-11.215128,1.3651612
1421362549246.00,-2.4560926,-11.976146,0.47481263
1421362549266.00,-2.3098466,-12.9805565,-3.0421238
1421362549286.00,-1.2534933,-13.748011,-2.844834
1421362549305.00,-1.4376105,-14.861845,-1.7663269
1421362549326.00,-0.85562074,-14.873969,-3.142565
1421362549346.00,-0.85532135,-13.986316,-0.5292993
1421362549366.00,-2.467469,-11.595786,4.4343786
1421362549385.00,-4.5646076,-9.771081,4.363426
1421362549445.00,-6.5740294,-11.357781,1.4244379
1421362549446.00,-10.171349,-13.161081,-2.151925
1421362549449.00,-8.120014,-12.479099,-3.4489777
1421362549466.00,-5.352569,-10.986254,3.0629306
1421362549486.00,-2.2320085,-10.164014,2.5709038
1421362549506.00,-2.0540285,-8.936716,0.9153465
1421362549526.00,-1.7714163,-7.1184473,1.6947757
1421362549547.00,-2.1728814,-4.9792457,2.372716
1421362549566.00,-2.7003846,-3.6714153,3.3232393
1421362549586.00,-2.692002,-3.0729597,3.037783
1421362549606.00,-2.61117,-2.5816813,2.4113357
1421362549626.00,-2.9380903,-1.8429675,1.9299366
1421362549646.00,-3.7019517,-0.79035646,0.90950865
1421362549668.00,-4.073629,-1.4419514,0.004490661
1421362549687.00,-3.5434313,-3.9541771,-1.8703606
1421362549707.00,-4.5903544,-12.709171,-12.691508
1421362549773.00,-4.6128078,-18.646425,-18.175505
1421362549774.00,-2.905009,-12.035572,-11.702814
1421362549775.00,-4.567452,-5.9709334,-5.6253023
1421362549786.00,-8.546178,-4.965025,-0.50490004
1421362549806.00,-8.228838,-9.799072,-1.5061679
1421362549826.00,-6.6180377,-12.100986,4.5436516
1421362549846.00,-6.7656307,-9.307345,6.0896363
1421362549866.00,-3.0746064,-6.065387,3.7339852
1421362549886.00,-2.7294242,-6.393355,5.4506154
1421362549906.00,-1.7131875,-8.499026,7.6971436
1421362549926.00,0.085172884,-12.562177,6.4900537
1421362549946.00,2.2604494,-14.433286,-0.9915381
1421362549966.00,1.3826747,-11.243868,0.75368273
1421362549986.00,-1.8342856,-9.353748,0.55639297
1421362550006.00,-3.6802468,-7.9338017,0.2996768
1421362550071.00,-4.758305,-7.8338094,-1.1620336
1421362550071.00,-4.281397,-7.7266326,-0.8608598
1421362550072.00,-2.9283605,-8.108638,-0.5427713
1421362550107.00,-1.0671309,-8.416997,0.30132338
1421362550107.00,-0.4845424,-8.46355,0.9035211
1421362550126.00,-0.6421646,-8.703052,1.1061996
1421362550146.00,-1.7498611,-9.313033,0.54980665
1421362550166.00,-2.3641837,-10.017319,-0.19803818
1421362550186.00,-2.201472,-10.334958,-2.0941453
1421362550206.00,-0.8822653,-11.178604,-3.5962715
1421362550226.00,-0.5601352,-12.263847,-1.5542179
1421362550246.00,-1.5630497,-12.106824,0.9422905
1421362550266.00,-1.7633331,-12.556639,-0.8771759
1421362550286.00,-0.60579026,-13.750406,-3.4838552
1421362550306.00,-0.45056304,-14.440171,-2.3411317
1421362550326.00,-1.2497511,-15.21526,-2.5595274
1421362550389.00,-0.36269578,-14.613212,-2.0155587
1421362550390.00,-1.2963043,-13.819412,3.1237042
1421362550390.00,-3.874992,-10.759326,5.0600777
1421362550406.00,-5.524412,-11.061098,3.226241
1421362550427.00,-8.33886,-12.937297,0.56238055
1421362550446.00,-9.224418,-13.129796,-2.5715024
1421362550466.00,-6.373596,-12.639117,-1.9911593
1421362550486.00,-3.6901264,-10.159224,4.33274
1421362550506.00,-2.1146526,-9.543854,0.6831793
1421362550526.00,-2.165397,-8.017328,1.902843
1421362550546.00,-1.7275575,-6.136938,2.7864556
1421362550567.00,-2.2617965,-4.219725,3.0563443
1421362550586.00,-2.8484266,-3.1025982,3.4726286
1421362550606.00,-2.8238778,-2.8345056,3.1530433
1421362550626.00,-3.0178742,-2.072141,2.4712112
1421362550646.00,-3.3191977,-0.8096663,1.6443306
1421362550666.00,-3.7603304,-1.137335,0.52316207
1421362550734.00,-3.3783247,-2.5153692,-0.24099883
1421362550735.00,-3.307971,-7.285799,-6.4970894
1421362550735.00,-5.6006036,-17.062418,-17.205671
1421362550746.00,-2.7749295,-17.17693,-15.367344
1421362550766.00,-2.8503726,-7.1727843,-8.416398
1421362550786.00,-6.867569,-6.050119,-2.716102
1421362550806.00,-8.442743,-7.9921803,-3.2370186
1421362550826.00,-6.7114434,-10.941647,3.1332843
1421362550846.00,-7.635472,-9.239387,6.9075356
1421362550866.00,-5.765261,-6.3065357,5.278174
1421362550886.00,-2.960394,-6.793922,4.073479
1421362550906.00,-2.139052,-8.791069,6.72282
1421362550926.00,0.8012837,-11.640095,6.9418144
1421362550946.00,1.6877403,-13.53186,0.56746995
1421362550966.00,0.9675879,-11.372002,-0.48648834
1421362550986.00,-1.2801379,-9.518855,1.789379
1421362551053.00,-2.3528073,-9.012309,1.4831158
1421362551054.00,-2.78436,-8.570727,-0.023950195
1421362551055.00,-3.6091447,-8.32434,-1.5693365
1421362551066.00,-3.1672637,-8.127349,-0.9663904
1421362551086.00,-2.150428,-8.287516,-0.19998413
1421362551106.00,-1.375789,-8.393346,0.6506969
1421362551126.00,-1.0948234,-8.445887,0.7773335
1421362551147.00,-1.2707076,-8.736881,1.1434722
1421362551173.00,-1.8473085,-9.764495,0.67958677
1421362551197.00,-1.8116826,-10.702444,-0.21210891
1421362551206.00,-0.96145064,-11.133847,-2.8630962
1421362551227.00,0.29039612,-11.958931,-4.2758584
1421362551246.00,-0.53708315,-12.609329,-0.87178713
1421362551266.00,-1.2484039,-12.8801155,0.93450665
1421362551288.00,-1.5801141,-13.230836,-1.8866767
1421362551306.00,-1.4548247,-13.28218,-4.2430763
1421362551387.00,-1.739832,-14.001434,-4.1528144
1421362551388.00,-0.73871386,-14.388529,-3.430566
1421362551388.00,0.07634125,-14.953454,0.90726334
1421362551389.00,-1.053659,-13.611196,7.5449104
1421362551408.00,-4.544849,-11.266321,4.5586205
1421362551426.00,-7.5038958,-12.7819195,1.5563136
1421362551446.00,-9.396859,-13.74846,-1.0913805
1421362551466.00,-6.5165486,-13.342953,-2.628085
1421362551488.00,-4.112548,-10.894046,3.5519636
1421362551511.00,-2.5373735,-9.144933,2.6300309
1421362551526.00,-2.4632776,-8.273445,1.6584014
1421362551546.00,-2.13516,-6.771768,2.3366408
1421362551566.00,-2.237547,-5.257966,2.8680358
1421362551586.00,-2.824776,-3.8673577,3.1292427
1421362551606.00,-3.044968,-2.8605514,3.1452594
1421362551626.00,-3.3910482,-2.1636007,2.7291248
1421362551646.00,-3.3184493,-1.1621833,1.9718496
1421362551666.00,-3.588787,-0.5730084,0.8931926
1421362551742.00,-3.3539255,-1.8790425,0.45220962
1421362551743.00,-3.128644,-5.608088,-2.3095472
1421362551743.00,-4.655918,-14.018498,-13.724659
1421362551754.00,-4.2201743,-18.824554,-17.6724
1421362551766.00,-2.4237597,-10.366543,-12.66636
1421362551786.00,-3.2102244,-5.2292256,-6.235134
1421362551806.00,-7.43908,-5.9020767,-0.24893235
1421362551826.00,-6.4806232,-5.8155565,-1.0208771
1421362551846.00,-4.5243416,-8.574919,3.5121465
1421362551867.00,-7.975864,-12.777729,4.630022
1421362551886.00,-5.494175,-14.754967,1.5473323
1421362551906.00,-0.5755531,-9.2046585,1.0217752
1421362551926.00,-0.993484,-5.567672,4.9976573
1421362551947.00,-2.4165747,-6.575077,7.318731
1421362551966.00,-3.023862,-8.9900055,4.7273197
1421362552042.00,-0.52510804,-13.053905,2.040407
1421362552043.00,1.3394147,-13.5362015,0.45490402
1421362552043.00,-0.7830217,-10.037677,0.03382965
1421362552056.00,-2.7779233,-8.120463,-0.41299117
1421362552066.00,-4.122128,-7.3673797,-0.6394702
1421362552086.00,-3.869753,-7.5598793,0.4312532
1421362552107.00,-2.9045599,-7.883656,0.20716919
1421362552126.00,-1.8910176,-8.367899,-0.03966751
1421362552147.00,-1.2404704,-8.563243,0.20761825
1421362552175.00,-0.9508228,-9.147628,0.44427612
1421362552186.00,-1.0847942,-9.817783,0.54157376
1421362552207.00,-1.0572515,-10.023755,-0.46074188
1421362552226.00,-0.25192612,-10.841206,-2.4439678
1421362552254.00,0.4010161,-12.065959,-3.0446687
1421362552266.00,-0.8563692,-11.932137,-0.599653
1421362552286.00,-1.9360739,-11.877201,1.3271402
1421362552417.00,-1.8287472,-12.919784,-0.8988808
1421362552417.00,-0.8741821,-14.119089,-2.6078768
1421362552418.00,-0.8704399,-15.618371,-2.3221211
1421362552418.00,-0.5704637,-15.329473,-2.400558
1421362552419.00,-0.5812413,-14.924265,0.30326936
1421362552420.00,-3.2424073,-11.356134,2.8735743
1421362552433.00,-4.39052,-9.842333,4.1520658
1421362552446.00,-6.186635,-11.147469,2.6276357
1421362552466.00,-9.592053,-12.773538,-0.5363347
1421362552486.00,-8.030201,-13.053455,-4.13081
1421362552506.00,-4.509223,-12.102932,3.0879285
1421362552528.00,-1.6061599,-10.665621,2.9877868
1421362552546.00,-1.5751745,-8.937165,1.5242802
1421362552566.00,-2.1417463,-7.073391,1.6690292
1421362552587.00,-2.084116,-5.4739666,2.5954528
1421362552607.00,-2.6427543,-3.8645136,3.3846116
1421362552690.00,-3.1635215,-3.0416749,3.2974927
1421362552691.00,-3.1428645,-2.3538551,2.4783962
1421362552691.00,-3.0400283,-1.6884887,1.9160156
1421362552692.00,-3.4745746,-1.2168196,0.91893905
1421362552706.00,-3.4358053,-2.10148,-0.067359924
1421362552726.00,-3.1157708,-4.844526,-2.7800188
1421362552747.00,-3.917653,-13.681549,-14.161451
1421362552766.00,-2.6869125,-18.778599,-17.568216
1421362552786.00,-1.91871,-12.955858,-11.093282
1421362552807.00,-4.1968226,-7.287745,-5.027146
1421362552826.00,-7.403155,-5.586233,-0.19579285
1421362552848.00,-7.106472,-6.307733,-0.09595047
1421362552867.00,-6.802903,-9.754166,3.531157
1421362552886.00,-10.243349,-12.612622,4.4475513
1421362552907.00,-4.5373645,-11.349548,1.0352472
1421362552927.00,-1.4980847,-7.467521,2.650089
1421362552947.00,-1.5217355,-5.495522,6.3219533
1421362553022.00,-0.99752563,-7.0051327,7.9772115
1421362553023.00,0.14040802,-11.4046335,5.4868402
1421362553023.00,2.3186784,-14.085409,-0.15702347
1421362553034.00,1.4675483,-11.6932335,0.6518944
1421362553047.00,-1.6775615,-9.283095,0.4948709
1421362553066.00,-3.280129,-8.238119,0.26105714
1421362553087.00,-4.0558157,-8.13169,-0.11765534
1421362553106.00,-4.002377,-8.024813,-0.69979477
1421362553126.00,-2.6888585,-8.329279,-0.42406815
1421362553146.00,-1.5045214,-8.343349,0.40535706
1421362553166.00,-1.060844,-8.174801,1.5636483
1421362553187.00,-0.8786728,-9.055269,1.6434325
1421362553206.00,-1.1584411,-9.745934,0.92313033
1421362553226.00,-1.0542576,-10.013127,-0.14564712
1421362553247.00,-0.22109024,-11.011252,-2.7101142
1421362553267.00,0.18920654,-12.187206,-4.318819
1421362553346.00,-0.8771759,-12.330459,-1.3346246
1421362553347.00,-1.2506492,-12.72908,0.76461
1421362553347.00,-1.0198293,-13.357324,-1.2364289
1421362553348.00,-0.75817335,-14.341527,-2.1302202
1421362553366.00,-0.64186525,-15.791262,-2.2706282
1421362553387.00,-0.34338593,-14.756314,-2.9184809
1421362553407.00,-0.63393176,-13.747711,0.39637575
1421362553427.00,-1.9212548,-11.924503,3.7236567
1421362553447.00,-2.8695328,-10.7478,3.4178426
1421362553467.00,-6.1858864,-12.018208,1.5649955
1421362553487.00,-9.2802515,-12.608131,-0.7123686
1421362553507.00,-8.28557,-13.818514,-2.5391698
1421362553526.00,-4.6550198,-11.843072,3.9026842
1421362553547.00,-1.2437636,-9.801019,1.6031662
1421362553566.00,-1.8086888,-8.341254,0.359702
1421362553587.00,-2.1742287,-6.430328,1.8555413
1421362553607.00,-1.79851,-4.619843,2.9145892
1421362553673.00,-2.3611898,-3.2730935,3.8664596
1421362553674.00,-2.6710455,-2.4917185,3.686534
1421362553674.00,-2.8488758,-1.7131875,2.8162436
1421362553688.00,-3.1789393,-0.42227188,1.9740949
1421362553706.00,-3.8344262,-0.21390519,0.30446684
1421362553726.00,-3.6042051,-1.7504599,-1.1615845
1421362553747.00,-4.0737786,-7.71825,-5.475464
1421362553767.00,-6.807843,-17.115707,-16.35454
1421362553786.00,-2.6243427,-17.361496,-15.508051
1421362553806.00,-2.2852976,-6.2785435,-8.098459
1421362553827.00,-4.946913,-5.349875,-1.486858
1421362553847.00,-5.7996893,-4.451593,-0.3490741
1421362553867.00,-4.5319757,-5.888455,1.710942
1421362553886.00,-7.6775346,-11.233989,4.0338116
1421362553907.00,-8.918754,-18.072517,1.9380199
1421362553969.00,-0.9541159,-12.009975,1.1201206
1421362553969.00,-0.40251297,-6.1983104,4.5665536
1421362553970.00,-1.5904427,-4.281996,7.6992393
1421362553989.00,-2.8644433,-8.455018,7.1359606
1421362554006.00,-0.92657316,-13.841267,4.101321
1421362554027.00,2.3691235,-14.146932,-1.9464024
1421362554047.00,-0.36179763,-10.021061,-1.2442126
1421362554067.00,-2.7177484,-8.000413,0.5164261
1421362554093.00,-4.191284,-7.219637,-0.03966751
1421362554128.00,-3.9535785,-6.9903135,-0.08741821
1421362554129.00,-2.726131,-7.3717203,0.2814148
1421362554148.00,-1.4157559,-7.9820013,-0.15163468
1421362554168.00,-0.7164102,-8.812474,-0.31030473
1421362554188.00,-0.9702823,-9.613309,-0.1167572
1421362554208.00,-1.5920892,-9.945318,-0.17079483
1421362554230.00,-2.1433928,-9.665101,-1.4250367
1421362554248.00,-1.5961308,-10.213411,-3.0157785
1421362554327.00,0.062270507,-11.514056,-2.1306694
1421362554327.00,0.33395553,-11.832444,1.2463083
1421362554328.00,-0.78092605,-12.184812,1.7881814
1421362554328.00,-1.3013937,-13.161231,-1.8517991
1421362554347.00,-0.40580612,-13.976585,-3.7012033
1421362554367.00,-1.3114228,-14.697785,-3.0344896
1421362554387.00,-1.703757,-14.666202,-3.5932777
1421362554408.00,-0.61656785,-14.157859,-2.112557
1421362554427.00,-1.093476,-13.041181,4.292923
1421362554447.00,-3.0587394,-10.848091,5.7847204
1421362554467.00,-4.7297144,-11.62288,2.528991
1421362554487.00,-8.2373705,-13.807587,-0.006286926
1421362554507.00,-7.7577677,-14.039454,-2.773283
1421362554526.00,-5.7755895,-12.467723,-1.5967296
1421362554547.00,-1.4492862,-11.398646,4.820875
1421362554609.00,-1.3566289,-8.305329,1.6955241
1421362554610.00,-1.6119978,-7.278015,1.895658
1421362554611.00,-2.1032763,-5.2370095,2.5932074
1421362554627.00,-2.4158263,-4.1517663,3.1496003
1421362554647.00,-2.817441,-3.1639705,2.930606
1421362554667.00,-3.0511053,-2.3565495,2.855911
1421362554687.00,-3.141667,-1.3090279,2.397714
1421362554707.00,-3.7209623,-0.2665956,1.8046472
1421362554726.00,-3.8139188,-1.5295193,0.97312635
1421362554749.00,-3.4078133,-5.342091,-1.6223264
1421362554772.00,-4.344715,-13.745167,-11.559262
1421362554787.00,-3.863915,-18.787281,-18.166822
1421362554807.00,-2.2427862,-12.008927,-13.026361
1421362554827.00,-2.2897882,-5.630242,-5.817353
1421362554847.00,-5.44837,-5.8390574,-0.44247985
1421362554867.00,-5.421875,-5.739365,-0.6182144
1421362554887.00,-4.743486,-8.919651,2.3272104
1421362554965.00,-7.3739657,-12.09919,3.945645
1421362554970.00,-5.935457,-13.937517,0.38155654
1421362554971.00,-1.6536113,-9.041199,2.7370582
1421362554971.00,-1.3627661,-6.1406803,3.7838316
1421362554987.00,-2.9782069,-5.1543813,6.0969715
1421362555007.00,-3.2686028,-7.8670406,5.0085845
1421362555027.00,-1.0979668,-11.8299,1.7922231
1421362555047.00,1.9058368,-13.565091,0.48588958
1421362555068.00,0.49112868,-11.422747,0.48544052
1421362555091.00,-1.3418097,-8.800798,0.9515712
1421362555107.00,-3.3480875,-8.00221,-1.0803035
1421362555127.00,-3.9636075,-7.648944,-0.4483177
1421362555147.00,-3.311863,-7.5437126,0.2996768
1421362555167.00,-1.8616786,-7.970026,0.96863574
1421362555189.00,-1.3448035,-8.549171,0.993484
1421362555208.00,-1.1032059,-9.2625885,0.48738647
1421362555228.00,-0.6936575,-9.365424,0.25641677
1421362555303.00,-0.9183403,-9.955498,-0.54696256
1421362555304.00,-0.43604323,-10.525661,-1.6784596
1421362555304.00,0.6930588,-11.469,-1.8043479
1421362555321.00,-0.053139497,-11.845767,0.15747254
1421362555327.00,-2.1329145,-11.933035,0.8731343
1421362555347.00,-2.6973908,-12.595557,-2.1592598
1421362555367.00,-1.6006215,-13.472883,-3.1653178
1421362555387.00,-1.0259665,-15.153289,-2.5830286
1421362555407.00,-0.70278853,-15.790065,-3.1798375
1421362555427.00,0.35655853,-15.882572,-1.8696121
1421362555447.00,-0.9539662,-13.282629,4.541406
1421362555467.00,-3.005001,-10.938803,4.6536727
1421362555487.00,-5.1367183,-11.308833,2.2290146
1421362555507.00,-8.594078,-12.660223,0.042511597
1421362555528.00,-8.286918,-12.537628,-2.5532405
1421362555547.00,-5.239255,-13.980328,1.5738273
1421362555615.00,-2.4417224,-10.378818,2.401456
1421362555616.00,-1.7651294,-8.368648,0.529449
1421362555616.00,-1.9658619,-7.2832546,1.6551082
1421362555628.00,-1.8031503,-4.913682,2.6026378
1421362555647.00,-2.2501209,-3.2687526,3.3919463
1421362555667.00,-2.7006838,-2.4583378,3.6684215
1421362555687.00,-2.9883857,-2.0746856,3.0349388
1421362555707.00,-3.2314801,-0.6887178,2.449656
1421362555729.00,-3.7721558,-0.20866607,1.2963043
1421362555747.00,-3.4034724,-1.4010864,0.34952316
1421362555768.00,-3.0731094,-5.176386,-2.2567072
1421362555787.00,-5.421127,-15.349231,-14.718742
1421362555807.00,-3.5558555,-19.005527,-17.001196
1421362555827.00,-2.789599,-8.712333,-10.601254
1421362555847.00,-5.878725,-5.0533414,-4.209097
1421362555870.00,-7.707023,-3.3332684,0.41987687
1421362555888.00,-6.879993,-3.3654516,0.74799454
1421362555951.00,-6.088439,-8.48241,4.3535466
1421362555951.00,-9.590406,-16.938026,1.2799883
1421362555952.00,-2.7866051,-15.299235,1.7958156
1421362555967.00,-0.28081605,-7.721094,3.6646793
1421362555987.00,-1.0129436,-3.7190163,7.2161937
1421362556007.00,-1.8991008,-6.2505517,8.26611
1421362556030.00,-1.4676979,-11.950699,6.271508
1421362556051.00,1.7904267,-15.098802,-1.2871733
1421362556067.00,1.2499008,-11.533666,-2.3364913
1421362556087.00,-1.7666262,-9.658515,0.92717195
1421362556107.00,-4.177064,-7.9481716,-0.4682263
1421362556127.00,-4.482728,-6.815178,-0.3887416
1421362556148.00,-3.648962,-7.343579,0.11930191
1421362556167.00,-1.9603235,-8.035291,0.1776805
1421362556187.00,-0.7044351,-8.240664,-0.03891907
1421362556260.00,-0.09699829,-8.845406,0.18935624
1421362556260.00,-0.2749782,-9.315578,0.99108905
1421362556261.00,-0.9821077,-9.823023,0.7918533
1421362556273.00,-1.6232245,-10.290051,-0.96010345
1421362556287.00,-0.91325086,-11.136541,-3.988905
1421362556307.00,-0.00464035,-12.4017105,-4.0915914
1421362556327.00,-0.07694,-12.080479,0.70278853
1421362556347.00,-0.20073257,-11.958781,2.298171
1421362556369.00,-0.27003846,-12.843741,-2.344275
1421362556388.00,-0.5034032,-13.436359,-4.7101054
1421362556408.00,-0.8285271,-14.369219,-3.76527
1421362556427.00,-0.97432387,-14.034965,-3.4212854
1421362556447.00,-0.65878004,-13.928685,-0.7725435
1421362556467.00,-0.8930429,-13.762381,5.3988233
1421362556487.00,-2.6617649,-11.828103,5.406906
1421362556507.00,-4.708459,-13.128599,2.2243743
1421362556527.00,-8.379275,-14.627432,-0.11840378
1421362556597.00,-7.3093004,-13.705948,-3.264262
1421362556597.00,-4.260141,-11.523936,0.55549484
1421362556598.00,-1.273402,-9.916129,2.8961773
1421362556607.00,-1.8727555,-8.0878315,1.3513898
1421362556628.00,-1.7883312,-6.996451,2.5782385
1421362556647.00,-1.6923807,-5.3889437,2.9334497
1421362556667.00,-2.315385,-4.2032595,2.6860144
1421362556688.00,-3.0177245,-3.3566198,2.4421716
1421362556713.00,-3.3986824,-2.3900797,2.0522323
1421362556741.00,-3.488795,-1.6780106,2.1203408
1421362556747.00,-3.4977763,-0.74380326,1.479673
1421362556768.00,-3.3759298,-1.8601817,0.61402315
1421362556790.00,-2.996918,-4.319567,-1.4504837
1421362556808.00,-3.393144,-10.809023,-8.327333
1421362556827.00,-5.554649,-18.06713,-17.66282
1421362556847.00,-2.0181034,-15.6903715,-13.710289
1421362556867.00,-2.3915768,-7.3003187,-7.7920465
1421362556929.00,-5.348378,-6.425089,-3.4172437
1421362556929.00,-6.4152093,-4.6861553,-1.5238311
1421362556931.00,-5.7405624,-6.957382,0.65892977
1421362556947.00,-7.6356215,-11.352242,5.547913
1421362556967.00,-8.159981,-13.564642,3.2361205
1421362556987.00,-1.9473006,-10.172696,1.4608122
1421362557007.00,-0.6623726,-6.497239,4.083658
1421362557027.00,-0.8120613,-6.322552,7.3929763
1421362557048.00,-1.2816348,-8.226294,6.5975304
1421362557067.00,-0.20477417,-12.14215,1.6732205
1421362557087.00,0.59920394,-12.766053,-0.12499008
1421362557107.00,0.05149292,-12.434492,1.6241226
1421362557128.00,-1.1835887,-9.005872,1.025218
1421362557148.00,-2.9196784,-7.913594,-1.1073972
1421362557168.00,-3.5425332,-7.2518196,-0.85756665
1421362557225.00,-2.7740314,-7.445068,0.20716919
1421362557226.00,-2.3334975,-7.729177,0.34533188
1421362557236.00,-1.7461189,-8.347241,1.0909314
1421362557248.00,-1.0970687,-9.05976,1.4672488
1421362557267.00,-0.9210347,-9.638008,0.54726195
1421362557287.00,-0.89618635,-9.714798,-0.94842774
1421362557310.00,-0.31299913,-10.150692,-2.5936565
1421362557328.00,0.58737856,-11.704161,-2.6673033
1421362557352.00,0.122445375,-12.154874,-0.22932312
1421362557376.00,-0.58558226,-12.516072,1.2927117
1421362557387.00,-1.0669812,-13.204042,-0.41927812
1421362557408.00,-0.9128018,-13.624967,-2.3796015
1421362557428.00,-0.46403503,-14.924864,-1.9492465
1421362557448.00,-0.3983217,-15.99439,-2.723736
1421362557468.00,-0.19684067,-15.401322,-1.8944604
1421362557488.00,-1.8600321,-13.091177,2.0483406
1421362557558.00,-3.4459841,-10.701396,4.5619135
1421362557559.00,-4.171974,-10.661429,3.0666728
1421362557559.00,-7.8833566,-13.206138,1.3540841
1421362557571.00,-8.446186,-12.799883,-1.9404149
1421362557588.00,-6.5761247,-12.3454275,-3.5293608
1421362557607.00,-2.3049068,-12.131522,6.507717
1421362557627.00,-1.5756235,-9.822574,0.92148376
1421362557647.00,-1.8609302,-8.1303425,1.3111235
1421362557667.00,-1.7342935,-6.377488,2.5869205
1421362557688.00,-2.116748,-4.2150846,2.9451256
1421362557708.00,-2.8370504,-3.032544,3.0103898
1421362557728.00,-2.910248,-2.3728657,2.9324021
1421362557747.00,-3.2150145,-1.556613,2.4269032
1421362557767.00,-3.507955,-0.57824755,2.079326
1421362557788.00,-3.488795,-0.5492079,1.3651612
1421362557810.00,-2.6372159,-2.0805235,0.39263353
1421362557886.00,-2.5134232,-7.2341566,-6.0616446
1421362557886.00,-4.529431,-16.953594,-17.345032
1421362557887.00,-2.4980054,-18.110239,-13.674813
1421362557887.00,-2.1294718,-7.5086856,-7.0763845
1421362557907.00,-5.950426,-4.1887393,-3.3139586
1421362557927.00,-6.562653,-2.389032,-2.4948618
1421362557950.00,-5.547913,-6.0035653,4.781058
1421362557968.00,-9.292826,-12.360846,2.8325596
1421362557989.00,-7.7231894,-17.557589,0.9939331
1421362558007.00,-1.5245796,-11.407478,2.4927664
1421362558027.00,-1.465752,-6.342012,4.2176294
1421362558048.00,-1.9226019,-5.103338,7.4556956
1421362558069.00,-0.89004916,-8.422984,8.643476
1421362558087.00,0.823737,-13.928386,5.198839
1421362558107.00,3.2061827,-14.664105,-2.9904814
1421362558127.00,0.5628296,-11.218571,-0.58213943
1421362558190.00,-2.2626946,-8.573272,0.9821077
1421362558190.00,-4.154461,-7.649992,0.13711487
1421362558191.00,-4.538412,-6.9202595,-0.59381515
1421362558208.00,-3.2680042,-6.815178,-0.3875441
1421362558227.00,-2.0130138,-7.3143897,0.019309845
1421362558248.00,-0.84993255,-8.669372,0.4709207
1421362558267.00,-0.4894821,-9.138347,1.0568024
1421362558289.00,-0.8943901,-9.5931015,0.7836205
1421362558308.00,-1.1494597,-10.367441,-0.34982255
1421362558329.00,-0.6800358,-10.844499,-2.8148963
1421362558348.00,-0.3171904,-11.894116,-4.7268705
1421362558368.00,-1.0322534,-12.240945,-0.65713346
1421362558387.00,-0.24144791,-12.633728,1.9553838
1421362558408.00,0.39981857,-13.71957,-0.8481363
1421362558429.00,0.8464897,-14.450351,-3.4537678
1421362558448.00,0.19040406,-15.345039,-1.9089803
1421362558469.00,-0.40595582,-15.632892,-1.8514998
1421362558487.00,-1.1394305,-14.506035,0.91325086
1421362558553.00,-3.4414933,-11.63261,3.5362463
1421362558553.00,-4.3776464,-10.3152,4.4137216
1421362558554.00,-5.489684,-11.742631,2.676584
1421362558567.00,-8.000563,-13.614938,0.29668304
1421362558587.00,-5.733527,-13.111834,-2.6265879
1421362558608.00,-4.657265,-11.751613,-1.0105486
1421362558627.00,-2.2745202,-11.068433,4.9374824
1421362558649.00,-2.1162992,-8.354128,1.8479073
1421362558669.00,-2.136507,-6.4665527,1.4617103
