time_milisec,ax,ay,az
1421375126094.00,-1.2436138,3.4914894,9.708661
1421375126114.00,-1.4187497,3.3816178,9.528735
1421375126139.00,-1.420995,3.2793806,9.544901
1421375126151.00,-1.5052698,3.1828313,9.337283
1421375126170.00,-1.5471826,3.3587155,9.487122
1421375126188.00,-1.3410612,3.3855097,9.450448
1421375126207.00,-1.3635145,3.5341506,9.332044
1421375126226.00,-1.0693762,3.4985247,9.105565
1421375126246.00,-1.0421329,3.542683,8.941207
1421375126269.00,-1.0826985,3.5161881,9.068742
1421375126289.00,-0.9722282,3.6396813,9.109906
1421375126306.00,-0.9036708,3.7028499,9.19433
1421375126326.00,-1.045426,3.6783009,9.2521105
1421375126347.00,-1.0385404,3.5938766,9.329649
1421375126366.00,-1.1238629,3.5654356,9.209748
1421375126388.00,-1.2748989,3.546126,9.332792
1421375126407.00,-1.1708652,3.50571,9.318123
1421375126426.00,-1.1943663,3.4042208,9.514365
1421375126446.00,-1.1421249,3.5000217,9.51152
1421375126466.00,-1.3082794,3.628305,9.353898
1421375126486.00,-1.4976356,3.5091527,9.156459
1421375126508.00,-1.5091617,3.5944753,9.136401
1421375126527.00,-1.4163547,3.497926,9.395811
1421375126546.00,-1.4922469,3.42862,9.23295
1421375126567.00,-1.479224,3.5467246,9.306297
1421375126586.00,-1.3780344,3.4727783,9.197024
1421375126608.00,-1.4093193,3.493136,9.2569
1421375126627.00,-1.3076806,3.6290534,9.365574
1421375126646.00,-1.2467574,3.59208,9.384435
1421375126667.00,-1.1750565,3.5977683,9.205707
1421375126687.00,-1.2424164,3.6507583,9.123228
1421375126706.00,-0.95890594,3.6329453,9.09344
1421375126728.00,-1.06758,3.5760636,9.020243
1421375126746.00,-1.3260924,3.6974611,9.270073
1421375126766.00,-1.1927197,3.5365458,9.293873
1421375126787.00,-1.2163706,3.4929862,9.239237
1421375126808.00,-1.1602373,3.5783088,9.228759
1421375126828.00,-1.2740006,3.489843,9.263337
1421375126848.00,-1.2183166,3.5380425,9.38189
1421375126868.00,-1.3476475,3.5199304,9.477691
1421375126888.00,-1.3187577,3.443589,9.465267
1421375126908.00,-1.213227,3.5188825,9.375753
1421375126928.00,-1.3606704,3.461402,9.331894
1421375126948.00,-1.2097843,3.4858012,9.307944
1421375126968.00,-1.214724,3.5298097,9.328751
1421375126989.00,-1.2719051,3.6239638,9.37725
1421375127009.00,-1.2222084,3.436853,9.150621
1421375127028.00,-1.2573853,3.5158887,9.108259
1421375127048.00,-1.1403286,3.6145334,9.221873
1421375127069.00,-1.2704082,3.6080968,9.4507475
1421375127088.00,-1.1141331,3.504662,9.43518
1421375127108.00,-1.145418,3.455115,9.335636
1421375127129.00,-1.1326946,3.4889448,9.267529
1421375127153.00,-0.9792636,3.5928288,9.179361
1421375127168.00,-1.1424243,3.5869908,9.147778
1421375127188.00,-1.225801,3.6052527,9.19463
1421375127208.00,-1.289269,3.503764,9.340876
1421375127227.00,-1.1409274,3.7598813,9.139095
1421375127247.00,-1.1716136,3.7266505,9.061108
1421375127268.00,-1.267564,3.5721717,9.163195
1421375127287.00,-1.2683126,3.7273989,9.249865
1421375127307.00,-1.2918136,3.4991236,9.3289
1421375127328.00,-1.253643,3.470533,9.406439
1421375127347.00,-1.2485536,3.3669484,9.222472
1421375127368.00,-1.3711487,3.4814603,9.259595
1421375127386.00,-1.477278,3.510949,9.124875
1421375127407.00,-1.361868,3.528313,9.157357
1421375127427.00,-1.4403049,3.469036,9.22801
1421375127447.00,-1.3606704,3.4323623,9.275461
1421375127467.00,-1.3219011,3.4564621,9.330847
1421375127490.00,-1.3319303,3.3880546,9.344468
1421375127507.00,-1.3760884,3.3941917,9.310638
1421375127526.00,-1.3078303,3.525768,9.486373
1421375127548.00,-1.1557466,3.5679803,9.5070305
1421375127567.00,-0.92028624,3.59702,9.391919
1421375127587.00,-1.0253677,3.6151323,9.514515
1421375127608.00,-0.9116043,3.610941,9.425599
1421375127628.00,-0.98031145,3.6083963,9.520652
1421375127648.00,-1.113235,3.6425254,9.490564
1421375127667.00,-0.99557966,3.7064424,9.307345
1421375127687.00,-1.0828482,3.499872,9.448651
1421375127707.00,-1.1617341,3.4088612,9.427995
1421375127727.00,-1.214724,3.4139507,9.314381
1421375127748.00,-1.1743081,3.4775684,9.21858
1421375127767.00,-1.1740086,3.4980757,9.178613
1421375127788.00,-1.3027409,3.3747323,9.320368
1421375127812.00,-1.4174025,3.3711398,9.259745
1421375127827.00,-1.2618759,3.4359548,9.202414
1421375127853.00,-1.0871892,3.3322206,9.170529
1421375127867.00,-1.1898756,3.460953,9.339378
1421375127888.00,-1.1529025,3.637436,9.430539
1421375127909.00,-1.2115805,3.5756145,9.089698
1421375127928.00,-1.1638298,3.5941758,9.232052
1421375127954.00,-1.0216255,3.539689,9.53113
1421375127974.00,-1.1190729,3.597918,9.562864
1421375127986.00,-1.2960049,3.5880387,9.372161
1421375128006.00,-1.0602452,3.541635,9.418264
1421375128026.00,-1.0912308,3.56334,9.302405
1421375128046.00,-0.96234876,3.5001714,9.23295
1421375128067.00,-1.0482701,3.3867073,9.164243
1421375128087.00,-1.0782079,3.386857,9.219028
1421375128107.00,-1.0330019,3.546126,9.255703
1421375128127.00,-0.89424044,3.4295182,9.407187
1421375128148.00,-1.0520123,3.5075061,9.720187
1421375128168.00,-1.0674303,3.3759298,9.561966
1421375128219.00,-1.1591895,3.416645,9.33429
1421375128220.00,-1.1428734,3.468138,9.443413
1421375128292.00,-1.0187814,3.6146832,9.421707
1421375128292.00,-1.0681787,3.654201,9.457633
1421375128293.00,-0.96324694,3.5952237,9.331295
1421375128294.00,-0.9466315,3.4811609,9.256302
1421375128350.00,-0.96938413,3.552263,9.32426
1421375128350.00,-0.9048683,3.6254609,9.35779
1421375128351.00,-1.0368937,3.4669404,9.372011
1421375128366.00,-0.9503737,3.3805702,9.452843
1421375128401.00,-0.7143146,3.4295182,9.535471
1421375128408.00,-0.93121356,3.4995725,9.407187
1421375128429.00,-0.81266004,3.441643,9.31977
1421375128493.00,-0.9466315,3.3187487,9.080866
1421375128494.00,-0.98105985,3.437751,9.155411
1421375128495.00,-1.2882211,3.3602123,9.350605
1421375128511.00,-1.3034893,3.508554,9.279802
1421375128546.00,-1.3965957,3.508554,9.163494
1421375128548.00,-1.2008029,3.5142422,9.419612
1421375128583.00,-1.0229727,3.4425411,9.502689
1421375128586.00,-0.848286,3.2865655,9.585617
1421375128617.00,-0.8137079,3.206033,9.406439
1421375128649.00,-0.97312635,3.267106,9.213191
1421375128649.00,-0.94393706,3.3323703,9.010962
1421375128681.00,-0.9713301,3.198249,8.866363
1421375128767.00,-1.0716215,3.3467405,8.801397
1421375128768.00,-1.1734099,3.341202,8.938512
1421375128768.00,-1.1482621,3.1741493,8.839718
1421375128774.00,-0.9713301,3.18343,8.855286
1421375128774.00,-0.9508228,3.19301,8.97294
1421375128803.00,-0.9568103,3.2650104,9.4612255
1421375128808.00,-0.37541932,3.203189,9.904603
1421375128859.00,-0.26779312,3.254532,10.068363
1421375128860.00,-0.15043716,3.257975,10.2370615
1421375128908.00,-0.1592688,3.2986903,10.070758
1421375128909.00,0.11765534,3.3022828,10.078093
1421375128910.00,0.33994308,3.1225066,10.167606
1421375128939.00,0.50504977,3.3003368,10.225685
1421375128988.00,0.5192702,3.2314801,9.987082
1421375128988.00,0.472717,3.2611184,9.6163025
1421375128989.00,0.42511597,3.1231055,9.358239
1421375129009.00,0.48124924,3.2513888,9.436676
1421375129054.00,0.7161108,3.1903157,9.41572
1421375129055.00,0.8044272,3.2368689,9.537416
1421375129104.00,0.6971004,3.1693592,9.467063
1421375129106.00,0.6360274,3.2440538,9.163644
1421375129106.00,0.4701723,3.272944,9.069191
1421375129173.00,0.61626846,3.3664994,9.264684
1421375129176.00,0.71311706,3.427722,9.5070305
1421375129177.00,0.60803556,3.3082705,9.277108
1421375129244.00,0.60234743,3.287314,9.075328
1421375129245.00,0.71760774,3.378175,8.951236
1421375129248.00,0.5903723,3.0714629,10.238259
1421375129249.00,0.10044113,3.2430062,9.991423
1421375129287.00,0.2562671,3.2407608,9.31962
1421375129288.00,0.4300557,3.2711477,9.309141
1421375129373.00,0.45505372,3.2213013,8.381371
1421375129374.00,0.34877473,3.350782,9.530381
1421375129375.00,0.4567003,3.420537,9.4314375
1421375129376.00,0.3740721,3.3883538,9.364078
1421375129414.00,0.49038026,3.2606695,9.237142
1421375129415.00,0.4737648,3.3072226,9.417965
1421375129429.00,0.46807662,3.1883698,9.36258
1421375129453.00,0.24953109,3.1966026,9.373807
1421375129469.00,0.30401778,3.160827,9.36752
1421375129486.00,0.13546829,3.0711634,9.37725
1421375129509.00,0.17618363,2.9524603,9.49266
1421375129527.00,0.2348616,3.064278,9.68486
1421375129546.00,-0.0371228,2.9442275,9.748029
1421375129567.00,-0.1803749,2.8845017,9.740694
1421375129587.00,-0.058228914,2.9324021,9.422007
1421375129607.00,-0.14834152,2.8942313,9.474398
1421375129626.00,-0.37751496,2.9841943,9.491912
1421375129649.00,-0.28845015,3.0615835,9.762099
1421375129669.00,-0.10627899,2.7095156,9.96373
1421375129690.00,-0.066910855,2.759362,9.964928
1421375129709.00,-0.11600876,2.8110044,9.694889
1421375129726.00,-0.25027955,2.7047255,9.486672
1421375129746.00,-0.34293687,2.567461,9.551488
1421375129766.00,-0.4831952,2.4432192,9.763896
1421375129787.00,-0.5965096,2.4478598,9.4877205
1421375129806.00,-0.8053253,2.559228,9.264235
1421375129829.00,-0.8963361,2.4983048,9.034762
1421375129850.00,-1.0749147,2.5652156,9.240135
1421375129868.00,-1.1073972,2.5197103,9.334589
1421375129888.00,-1.0340496,2.3816972,9.634266
1421375129909.00,-1.1160791,2.3122416,9.514813
1421375129927.00,-0.9457333,2.5490491,9.435329
1421375129948.00,-0.9855505,2.5613236,9.499396
1421375129969.00,-1.0238708,2.3950195,9.657916
1421375129986.00,-0.8770262,2.3912773,9.789493
1421375130007.00,-0.79260176,2.2993684,9.788145
1421375130027.00,-0.6914122,2.3282583,9.717642
1421375130047.00,-0.7087761,2.3626869,9.714349
1421375130069.00,-0.7129674,2.3308032,9.390573
1421375130088.00,-0.4629872,2.5247996,9.675281
1421375130108.00,-0.42242157,2.5050406,9.731862
1421375130128.00,-0.41927812,2.7134075,10.102043
1421375130149.00,-0.3606001,2.5691075,10.176738
1421375130181.00,-0.2508783,2.6354196,10.027797
1421375130217.00,-0.15627502,2.669848,9.794582
1421375130223.00,-0.32437545,2.7297235,9.927206
1421375130227.00,-0.4631369,2.753075,9.928404
1421375130247.00,-0.3065625,2.5643175,9.746532
1421375130266.00,-0.27916947,2.6352699,9.653126
1421375130288.00,-0.43439665,2.5349784,9.430839
1421375130307.00,-0.5533992,2.4168742,9.528885
1421375130327.00,-0.78691363,2.3194268,9.648786
1421375130347.00,-0.87522995,2.3234682,9.93005
1421375130367.00,-0.91325086,2.174977,9.828562
1421375130392.00,-0.9741742,2.127376,9.5246935
1421375130408.00,-1.0178833,2.2586532,9.532028
1421375130427.00,-0.99019086,2.4691155,9.631271
1421375130447.00,-0.9741742,2.3743625,9.812545
1421375130467.00,-0.9556128,2.3936722,9.954899
1421375130487.00,-0.9159453,2.580484,9.658665
1421375130507.00,-0.7113208,2.6711953,9.601633
1421375130529.00,-0.77179503,2.6177564,9.547746
1421375130547.00,-0.8693921,2.4906707,9.877211
1421375130567.00,-0.9162447,2.6815238,9.6863575
1421375130587.00,-0.86714673,2.8613,9.58906
1421375130607.00,-0.88481003,2.7806177,9.579629
1421375130659.00,-0.8681946,2.8370504,9.7900915
1421375130660.00,-0.8298743,2.906356,9.351803
1421375130680.00,-0.9223819,2.8669882,9.081165
1421375130694.00,-0.852627,2.9918284,9.156609
1421375130736.00,-1.212778,2.8385472,9.326955
1421375130737.00,-1.2642709,2.9214747,9.408685
1421375130761.00,-1.3903089,3.290158,9.194031
1421375130776.00,-1.0603949,3.3191977,9.064401
1421375130794.00,-0.9289682,3.1942077,9.368568
1421375130812.00,-1.004561,3.1133757,9.605525
1421375130828.00,-1.0365944,3.6097436,9.643696
1421375130847.00,-1.3213023,3.391198,9.37725
1421375130876.00,-1.6901354,3.0894256,9.067394
1421375130895.00,-1.6275655,3.4057178,8.879086
1421375130912.00,-1.3630655,3.6208205,9.123228
1421375130926.00,-1.357527,3.6636314,9.283844
1421375130946.00,-1.486858,3.7145257,9.470506
1421375130967.00,-1.7553996,3.565735,9.0920925
1421375130987.00,-1.8089882,3.4569113,9.140741
1421375131008.00,-1.6280146,3.4188905,9.221274
1421375131027.00,-1.041085,3.621569,9.235345
1421375131050.00,-0.9985735,3.8887632,9.088799
1421375131067.00,-1.3840219,4.011957,9.039253
1421375131088.00,-1.499881,3.6016603,9.176368
1421375131109.00,-1.2106824,3.585494,9.272018
1421375131153.00,-0.9648935,3.5579512,9.261091
1421375131154.00,-0.6740483,3.8357735,9.368119
1421375131173.00,-0.7792795,3.7999978,9.561517
1421375131192.00,-1.0374925,3.6699183,9.61256
1421375131225.00,-1.1609857,3.3042288,9.580228
1421375131227.00,-1.4889537,3.083438,9.668244
1421375131248.00,-1.4894028,3.1825318,9.493708
1421375131266.00,-1.7416283,3.096311,9.325458
1421375131288.00,-1.7298028,3.094066,9.394015
1421375131307.00,-1.6702267,3.0713131,9.493408
1421375131327.00,-1.2904664,2.932851,9.494905
1421375131346.00,-1.0485694,2.9443772,9.44925
1421375131367.00,-1.3223501,2.9873378,9.523945
1421375131387.00,-1.3810282,2.8792624,9.568103
1421375131410.00,-1.4120136,2.8839028,9.449849
1421375131427.00,-1.269061,2.9476702,9.229358
1421375131447.00,-1.0716215,2.9599447,9.386082
1421375131468.00,-0.95067304,2.8394454,9.734258
1421375131487.00,-1.0077045,3.0621822,9.725126
1421375131509.00,-0.94139236,3.0198202,9.864636
1421375131528.00,-0.8890013,3.0391302,9.749227
1421375131547.00,-0.88540876,3.1813345,9.607621
1421375131567.00,-0.79799056,3.1832802,9.463321
1421375131587.00,-0.7631131,3.150648,9.460627
1421375131607.00,-0.7351213,3.013234,9.406738
1421375131630.00,-0.7843689,3.152594,9.378597
1421375131647.00,-0.89903045,3.0274544,9.55553
1421375131670.00,-0.9261241,2.982997,9.48278
1421375131688.00,-0.8282277,3.1329849,9.519304
1421375131707.00,-0.8704399,3.0948143,9.2625885
1421375131729.00,-0.8879535,3.1235545,9.339378
1421375131748.00,-0.8909473,3.0895753,9.448052
1421375131767.00,-0.859812,3.1443613,9.331594
1421375131788.00,-0.8376581,3.0557456,9.439221
1421375131807.00,-0.93540484,3.0939162,9.400452
1421375131827.00,-0.83092207,3.11607,9.568402
1421375131848.00,-0.7566765,3.2596216,9.615555
1421375131867.00,-0.88001996,3.3135095,9.579629
1421375131889.00,-0.9874965,3.2323782,9.629925
1421375131909.00,-0.9584569,3.0213172,9.469009
1421375131929.00,-0.9397458,3.1169682,9.336684
1421375131952.00,-0.8475375,3.129093,9.304801
1421375131967.00,-0.723745,3.0376332,9.191337
1421375131987.00,-0.8515791,3.1439123,9.385034
1421375132007.00,-0.69470537,3.1783407,9.378148
1421375132027.00,-0.4261638,3.2638128,9.547446
1421375132047.00,-0.48244676,3.1978002,9.5037365
1421375132067.00,-0.53678375,3.2495925,9.456585
1421375132087.00,-0.527054,3.340304,9.446107
1421375132107.00,-0.51837206,3.171006,9.481583
1421375132127.00,-0.48094985,3.1558874,9.509425
1421375132149.00,-0.2775229,3.1909144,9.55059
1421375132167.00,-0.5456154,3.3606615,9.491612
1421375132187.00,-0.49606842,3.2636633,9.417516
1421375132207.00,-0.56687117,3.186274,9.548045
1421375132244.00,-0.6078859,3.196902,9.48787
1421375132249.00,-0.4044589,3.1645691,9.426947
1421375132268.00,-0.3983217,3.2022908,9.360934
1421375132287.00,-0.475112,3.2459998,9.558523
1421375132307.00,-0.58468413,3.2156131,9.623487
1421375132327.00,-0.58333695,3.203189,9.427396
1421375132347.00,-0.49966094,3.1621742,9.414672
1421375132375.00,-0.48618898,3.0437706,9.432335
1421375132389.00,-0.59980273,3.1037955,9.381741
1421375132407.00,-0.5372328,3.0826895,9.473799
1421375132427.00,-0.64635587,3.1126273,9.33429
1421375132447.00,-0.48828462,3.0892758,9.388476
1421375132467.00,-0.5519023,3.1934593,9.548643
1421375132488.00,-0.61761564,3.1017,9.566008
1421375132508.00,-0.62045974,3.1274464,9.670191
1421375132527.00,-0.6550378,3.0808933,9.657617
1421375132547.00,-0.6836284,2.9889843,9.696237
1421375132568.00,-0.5218149,3.0669723,9.511071
1421375132587.00,-0.57944506,3.1624737,9.513916
1421375132607.00,-0.52001864,3.1681619,9.412577
1421375132629.00,-0.62285477,3.251688,9.38204
1421375132650.00,-0.56911653,3.166216,9.496102
1421375132667.00,-0.680934,3.1317873,9.495654
1421375132687.00,-0.6917116,2.9981153,9.489516
1421375132707.00,-0.67105454,2.9484186,9.38698
1421375132727.00,-0.6851253,3.052153,9.533076
1421375132749.00,-0.63557833,2.884801,9.575887
1421375132767.00,-0.68557435,3.0401778,9.585916
1421375132787.00,-0.5745053,3.0600865,9.56466
1421375132807.00,-0.5553452,3.0395792,9.596095
1421375132827.00,-0.5201683,3.0759535,9.476344
1421375132849.00,-0.54247195,3.2368689,9.388327
1421375132869.00,-0.5670209,3.0768516,9.479637
1421375132887.00,-0.6622229,3.082989,9.608369
1421375132907.00,-0.7351213,3.1145732,9.488319
1421375132927.00,-0.59770703,3.1365774,9.451196
1421375132948.00,-0.64545774,3.0446687,9.521999
1421375132969.00,-0.71880525,3.046465,9.544453
1421375132990.00,-0.8020322,3.0467641,9.566756
1421375133010.00,-0.6673123,3.0582902,9.504335
1421375133027.00,-0.65084654,2.9967682,9.445358
1421375133047.00,-0.6610254,3.0799952,9.583671
1421375133068.00,-0.57824755,3.1970518,9.554781
1421375133087.00,-0.77299255,3.116669,9.427396
1421375133107.00,-0.5986052,3.219954,9.411079
1421375133130.00,-0.5559439,3.0633798,9.512419
1421375133147.00,-0.7092252,3.0085936,9.366772
1421375133167.00,-0.7009923,3.1034963,9.259445
1421375133188.00,-0.7952962,2.9976664,9.434281
1421375133207.00,-0.69575316,3.0231135,9.346863
1421375133227.00,-0.7433542,3.0737083,9.649533
1421375133248.00,-0.9105565,3.116669,9.686208
1421375133272.00,-0.86415297,2.9350965,9.705667
1421375133292.00,-0.74095917,3.0288017,9.657018
1421375133309.00,-0.62734544,2.869383,9.762998
1421375133329.00,-0.58079225,2.9907806,9.572294
1421375133349.00,-0.4815486,3.0991552,9.548493
1421375133368.00,-0.5008585,3.1521451,9.333092
1421375133388.00,-0.5099895,3.1198123,9.12203
1421375133409.00,-0.5528004,3.0660741,9.328002
1421375133428.00,-0.45610154,3.104993,9.402547
1421375133447.00,-0.5530998,3.0502071,9.523795
1421375133468.00,-0.6749464,3.0380824,9.525742
1421375133487.00,-0.6996451,3.1669643,9.689351
1421375133510.00,-0.74125856,3.078199,9.772129
1421375133529.00,-0.7598199,3.0301487,9.578133
1421375133547.00,-0.65488815,3.1172676,9.344768
1421375133569.00,-0.61761564,3.0250595,9.382938
1421375133587.00,-0.6902147,2.976261,9.466015
1421375133608.00,-0.68722093,2.9955707,9.528885
1421375133630.00,-0.7777826,3.007396,9.532927
1421375133648.00,-0.5800438,3.14975,9.462273
1421375133667.00,-0.5692662,3.1521451,9.363778
1421375133687.00,-0.82897615,3.115172,9.411678
1421375133708.00,-0.65084654,3.05365,9.572893
1421375133730.00,-0.7399113,3.0520034,9.487271
1421375133748.00,-0.8928932,3.0578413,9.424552
1421375133768.00,-0.72928345,3.1811848,9.453292
1421375133787.00,-0.7909552,3.0000613,9.4253
1421375133810.00,-0.72613996,2.841541,9.55987
1421375133830.00,-0.82328796,2.8898904,9.6179495
1421375133856.00,-0.96040285,2.9563522,9.583671
1421375133868.00,-0.7493417,2.9407847,9.551638
1421375133887.00,-0.8053253,2.966531,9.482481
1421375133908.00,-0.9011261,2.9828472,9.316028
1421375133927.00,-0.8517288,3.0759535,9.327404
1421375133947.00,-0.8881032,2.997367,9.571246
1421375133970.00,-0.83002394,3.0005105,9.616153
1421375133990.00,-0.9725276,2.9409342,9.518406
1421375134010.00,-0.8981323,2.9605436,9.526489
1421375134029.00,-0.8518785,2.8351045,9.436227
1421375134049.00,-0.86041075,2.997816,9.653575
1421375134070.00,-0.8014334,2.9524603,9.775871
1421375134089.00,-0.7538324,2.974315,9.571995
1421375134109.00,-0.7686516,2.9585977,9.636661
1421375134130.00,-0.7686516,2.9000692,9.439671
1421375134149.00,-0.7972421,2.9409342,9.531579
1421375134169.00,-0.74649763,2.9615912,9.409284
1421375134190.00,-0.8029303,2.8334577,9.339977
1421375134212.00,-0.85412383,2.7794201,9.616602
1421375134229.00,-0.8490344,2.7791207,9.472602
1421375134247.00,-0.93854827,2.90935,9.412277
1421375134267.00,-0.9440868,2.8198361,9.539363
1421375134288.00,-0.9395961,2.768493,9.661359
1421375134309.00,-0.98420334,2.8216324,9.486373
1421375134327.00,-0.8158035,2.8502228,9.520951
1421375134348.00,-0.8571176,2.906955,9.4104805
1421375134367.00,-0.8893007,2.932851,9.623188
1421375134387.00,-0.7322772,2.8430378,9.729767
1421375134408.00,-0.91923845,2.7601104,9.556876
1421375134428.00,-0.89424044,2.7619066,9.446706
1421375134448.00,-0.812211,2.9059072,9.645493
1421375134468.00,-0.8955876,2.8433373,9.682016
1421375134487.00,-0.9114546,2.6899064,9.599538
1421375134508.00,-0.9406439,2.671345,9.624386
1421375134528.00,-0.8478369,2.8274703,9.61286
1421375134547.00,-0.68497556,2.8481274,9.611363
1421375134568.00,-0.86071014,2.892435,9.523196
1421375134588.00,-0.6777905,2.9210258,9.407187
1421375134607.00,-0.723745,3.0301487,9.646839
1421375134629.00,-0.8339159,2.9057574,9.46392
1421375134648.00,-0.8551717,2.7686427,9.778116
1421375134668.00,-0.87433183,2.8518696,9.69459
1421375134688.00,-0.9701326,2.8107052,9.548195
1421375134707.00,-0.9517209,2.8810587,9.571995
1421375134728.00,-0.9011261,2.8945308,9.626033
1421375134748.00,-0.83945435,2.949766,9.568103
1421375134768.00,-0.7984396,2.753973,9.488768
1421375134788.00,-0.8196954,2.7861562,9.452394
1421375134807.00,-0.9494755,2.836152,9.520053
1421375134827.00,-0.9339079,2.8107052,9.549092
1421375134848.00,-0.99498093,2.9431796,9.482032
1421375134869.00,-0.8782237,2.9059072,9.638906
1421375134889.00,-0.80787003,2.871778,9.617051
1421375134909.00,-0.88720506,2.7806177,9.753568
1421375134928.00,-0.839604,2.8201356,9.576186
1421375134948.00,-0.7060817,2.9008176,9.527837
1421375134968.00,-0.864602,2.8401937,9.519604
1421375134987.00,-0.7813751,2.832859,9.454639
1421375135010.00,-0.79439807,2.8383975,9.638307
1421375135027.00,-0.8569679,2.8355534,9.711505
1421375135048.00,-0.83436495,2.7960355,9.692794
1421375135067.00,-0.84873503,2.7493327,9.671389
1421375135087.00,-0.798739,2.765499,9.668694
1421375135108.00,-0.7842192,2.8662395,9.693093
1421375135127.00,-0.85412383,2.8358529,9.499546
1421375135148.00,-0.848286,2.7921438,9.434431
1421375135167.00,-0.8412506,2.8047175,9.443413
1421375135190.00,-0.8184979,2.8747718,9.558074
1421375135210.00,-0.74230635,2.9062066,9.72363
1421375135229.00,-0.8446934,2.8683352,9.542506
1421375135250.00,-0.8952882,2.8964767,9.460926
1421375135270.00,-0.7723938,2.9738657,9.456884
1421375135289.00,-0.80876815,2.9627888,9.566756
1421375135310.00,-0.72359526,2.9264145,9.560169
1421375135329.00,-0.72868466,2.7975326,9.5158615
1421375135349.00,-0.8190967,2.871778,9.58412
1421375135370.00,-0.8225395,2.9027636,9.527238
1421375135396.00,-0.76790315,3.0138328,9.531579
1421375135409.00,-0.8741821,3.0139823,9.590406
1421375135430.00,-0.89618635,2.9975166,9.566906
1421375135449.00,-0.85921323,3.0961616,9.418564
1421375135469.00,-0.7470964,2.975213,9.3928175
1421375135489.00,-0.91250247,2.9440777,9.460477
1421375135510.00,-0.87552935,2.8366013,9.632918
1421375135530.00,-0.8205936,2.9193792,9.591904
1421375135550.00,-0.9446855,3.032843,9.645193
1421375135570.00,-0.7830217,2.9648845,9.502839
1421375135592.00,-0.8015831,3.0244606,9.533974
1421375135704.00,-0.84619033,3.0761032,9.536968
1421375135704.00,-0.9012758,3.031496,9.586065
1421375135705.00,-0.89648575,2.991529,9.658814
1421375135706.00,-0.7864645,2.9412336,9.499845
1421375135707.00,-0.782872,2.9437783,9.523795
1421375135708.00,-0.8454419,3.0421238,9.525592
1421375135735.00,-0.80906755,3.0761032,9.588161
1421375135754.00,-0.80906755,3.043471,9.551039
1421375135769.00,-0.8503816,2.8865974,9.502839
1421375135788.00,-0.8150551,2.8650422,9.542506
1421375135809.00,-0.91205335,2.7988796,9.462572
1421375135828.00,-1.0268646,2.939587,9.381591
1421375135851.00,-0.83810717,2.982997,9.507329
1421375135873.00,-0.8861572,2.9883857,9.600436
1421375135891.00,-0.9219328,2.9716206,9.536669
1421375135908.00,-0.8430469,3.0027556,9.562415
1421375135928.00,-0.8288264,2.9094996,9.573492
1421375135948.00,-0.84199905,3.0051508,9.605824
1421375135968.00,-0.8071216,2.906955,9.544601
1421375135987.00,-0.88451064,3.0876293,9.466464
1421375136009.00,-0.80472654,2.9562025,9.446706
1421375136030.00,-0.7937993,3.0925689,9.470955
1421375136048.00,-0.9419911,2.9355454,9.616153
1421375136069.00,-0.8955876,3.0422735,9.446706
1421375136089.00,-0.7442523,2.9547057,9.421557
1421375136108.00,-0.79514647,2.8909383,9.552685
1421375136129.00,-0.9038205,2.9298573,9.60807
1421375136148.00,-0.9264235,2.924169,9.618249
1421375136168.00,-0.8707393,3.0368848,9.493708
1421375136190.00,-0.9836046,2.9346473,9.3293495
1421375136208.00,-0.8674461,3.1540911,9.35315
1421375136228.00,-0.8738828,2.9979658,9.4402685
1421375136248.00,-0.90307206,2.9777577,9.5158615
1421375136268.00,-0.7708969,2.9407847,9.460627
1421375136290.00,-0.8931926,2.7960355,9.651779
1421375136313.00,-0.8704399,2.8671377,9.623637
1421375136328.00,-0.8515791,2.9282107,9.555978
1421375136348.00,-0.9837543,2.9892838,9.663305
1421375136368.00,-0.8494835,2.956502,9.48308
1421375136388.00,-0.90217394,3.012785,9.69923
1421375136409.00,-0.8327184,2.9014165,9.559272
1421375136430.00,-0.79933774,2.959795,9.517808
1421375136449.00,-0.75937086,3.020868,9.536369
1421375136470.00,-0.8532257,3.0178742,9.481882
1421375136489.00,-0.8734337,3.0343401,9.499247
1421375136510.00,-0.8360115,3.029999,9.590406
1421375136530.00,-0.97177917,2.9553044,9.451345
1421375136549.00,-1.0392888,2.9217741,9.522597
1421375136570.00,-1.0539583,2.8499236,9.599089
1421375136590.00,-1.0900333,2.7758276,9.6460905
1421375136610.00,-1.1029065,2.7562184,9.566457
1421375136630.00,-1.0945239,2.848726,9.413325
1421375136654.00,-1.0382409,2.9446764,9.296418
1421375136670.00,-1.0096505,3.0061986,9.2537565
1421375136693.00,-0.9993219,3.0900242,9.4612255
1421375136708.00,-1.0413845,3.063679,9.369017
1421375136728.00,-0.8955876,3.0813422,9.372459
1421375136750.00,-0.79514647,2.983446,9.551039
1421375136770.00,-0.91639435,3.065625,9.808204
1421375136791.00,-0.943488,3.1051428,9.681867
1421375136810.00,-0.8830138,2.9955707,9.739945
1421375136830.00,-0.7873627,2.965633,9.721534
1421375136850.00,-0.837209,2.972369,9.461525
1421375136870.00,-0.8443941,2.868934,9.523496
1421375136889.00,-0.898282,2.8186386,9.416469
1421375136910.00,-0.9533675,3.0469139,9.43503
1421375136930.00,-1.0192305,2.950664,9.311537
1421375136950.00,-1.1127859,2.9511132,9.455387
1421375136970.00,-1.0072554,2.903512,9.577384
1421375136990.00,-1.0490185,2.797233,9.49266
1421375137010.00,-0.8918454,2.8532166,9.428294
1421375137030.00,-0.89798266,3.023263,9.320218
1421375137050.00,-0.9195378,2.949317,9.334589
1421375137070.00,-0.8839119,3.0915213,9.481882
1421375137090.00,-0.9750723,2.9484186,9.444909
1421375137110.00,-0.85681826,2.8568091,9.565109
1421375137130.00,-1.0850935,2.897824,9.673933
1421375137150.00,-0.9153465,2.9533584,9.624236
1421375137170.00,-0.9633966,2.9249177,9.433233
1421375137190.00,-1.0361453,3.0427227,9.467063
1421375137210.00,-1.0865904,2.9855416,9.569001
1421375137229.00,-1.119522,2.8351045,9.415121
1421375137250.00,-0.96040285,2.8285182,9.482032
1421375137269.00,-0.98674804,2.741549,9.393716
1421375137290.00,-0.83571213,2.7707381,9.293425
1421375137310.00,-0.76984906,3.0202694,9.644295
1421375137329.00,-0.7283853,2.9828472,9.601633
1421375137349.00,-0.8894504,2.9879365,9.429641
1421375137370.00,-1.036295,2.9077034,9.706265
1421375137390.00,-0.9868977,2.7894492,9.876462
1421375137409.00,-0.9827064,2.8255243,9.875114
1421375137430.00,-0.98764616,2.737208,9.81973
1421375137449.00,-0.93345886,2.9106972,9.620344
1421375137470.00,-0.9581575,2.8812084,9.465267
1421375137489.00,-1.1226654,2.91893,9.201665
1421375137509.00,-1.015638,2.8931837,8.906479
1421375137530.00,-0.8399034,2.8252249,9.201815
1421375137550.00,-0.9397458,2.7933412,9.7040205
1421375137569.00,-0.8409512,2.6550288,9.397159
1421375137591.00,-0.83915496,2.7405012,9.625733
1421375137610.00,-0.7961943,2.8388467,9.6775255
1421375137637.00,-0.52540743,2.8797116,9.590706
1421375137670.00,-0.5840854,3.1055918,9.439671
1421375137671.00,-0.8015831,2.8984227,9.389974
1421375137697.00,-0.9301657,2.6957443,9.514515
1421375137708.00,-1.0578502,2.596351,9.42515
1421375137728.00,-1.1482621,2.5249493,9.2521105
1421375137748.00,-1.0825489,2.4929159,9.652977
1421375137768.00,-1.0189312,2.360142,9.999057
1421375137789.00,-1.3290862,2.6912534,9.604627
1421375137810.00,-0.99453187,2.9352462,9.536369
1421375137834.00,-0.9213341,2.9174333,9.940379
1421375137853.00,-0.77448946,2.7138565,9.969718
1421375137871.00,-0.8529263,2.778073,9.926308
1421375137890.00,-0.84858537,2.8424392,10.012678
1421375137910.00,-1.1784993,2.9644353,10.009834
1421375137931.00,-1.0903326,2.393822,9.672136
1421375137954.00,-0.78481793,2.8382478,9.684261
1421375137973.00,-0.8653505,3.0856833,9.77168
1421375137990.00,-0.76655596,2.773283,9.68995
1421375138010.00,-0.70024383,2.0826192,9.6284275
1421375138038.00,-0.55414766,1.6982186,9.755962
1421375138050.00,-0.47421387,2.1993763,9.51197
1421375138071.00,-0.497715,2.4673193,9.344917
1421375138092.00,-0.8143066,2.323169,9.46871
1421375138110.00,-0.83631086,2.3035598,9.388476
1421375138130.00,-1.0065069,2.54875,9.460776
1421375138150.00,-0.9011261,2.711162,9.39641
1421375138171.00,-0.7662566,2.146237,9.349558
1421375138191.00,-0.6822812,1.7055533,10.160421
1421375138211.00,-0.6319858,2.0035834,9.718989
1421375138231.00,-0.42032593,2.1956341,9.605824
1421375138250.00,-0.25671616,2.4261549,9.372311
1421375138269.00,-0.09445358,2.6277854,9.432634
1421375138290.00,-0.088166654,2.7575655,9.48278
1421375138311.00,-0.15313156,2.9782069,9.506132
1421375138330.00,-0.41688308,2.823279,9.873917
1421375138349.00,-0.66716266,3.1043944,9.3453665
1421375138369.00,-0.35251695,3.0520034,9.353001
1421375138389.00,-0.38080812,3.3048277,9.307196
1421375138410.00,-0.6993457,3.3660502,9.2818985
1421375138430.00,-0.46493316,3.461402,9.244476
1421375138449.00,-0.78601545,3.5148408,9.458232
1421375138469.00,-0.90037763,3.8818777,9.60807
1421375138489.00,-1.2100836,4.023633,9.52619
1421375138510.00,-1.2178674,3.6495607,9.7514715
1421375138530.00,-1.0300081,3.7655694,10.023905
1421375138550.00,-0.9038205,4.1025186,9.542506
1421375138569.00,-1.1705658,4.3340874,10.010134
1421375138589.00,-1.4679973,3.4871485,9.933942
1421375138610.00,-1.3213023,3.29405,8.719518
1421375138630.00,-1.291215,2.9999115,10.652298
1421375138651.00,-0.5176236,2.772684,8.369396
1421375138670.00,-0.31090346,2.9614418,9.046738
1421375138690.00,-0.063917086,2.5354276,9.441616
1421375138710.00,-0.4754114,1.6187339,10.587334
1421375138730.00,-0.5360353,1.8633252,9.514813
1421375138749.00,-0.5351372,2.2338047,9.491912
1421375138768.00,-0.19085312,2.3424788,9.186247
1421375138788.00,0.432301,2.2338047,8.843161
1421375138808.00,0.85307604,1.8685642,8.575966
1421375138828.00,0.9624985,1.8027012,8.4785185
1421375138850.00,0.8092172,1.6527132,8.806487
1421375138870.00,0.49127838,1.4932947,8.952883
1421375138889.00,0.32078293,1.8049465,9.246721
1421375138911.00,0.061522063,1.8519489,9.239387
1421375138930.00,0.084723815,2.0799248,9.253307
1421375138949.00,0.061222687,2.4113357,9.341475
1421375138969.00,-0.13262421,2.3887327,9.219777
1421375138990.00,-0.31734008,2.2453308,9.118737
1421375139010.00,-0.08936416,2.1080663,8.797805
1421375139030.00,-0.2547702,1.9399658,8.3191
1421375139049.00,-0.48139894,2.0782783,8.541986
1421375139069.00,-0.70368665,2.3348446,8.540939
1421375139090.00,-0.63497955,2.1198916,8.288713
1421375139111.00,-0.7560777,1.843267,8.474029
1421375139130.00,-1.0722203,1.7101936,8.637938
1421375139150.00,-1.5398479,1.968706,9.428742
1421375139170.00,-1.7634828,1.8739531,9.311237
1421375139190.00,-1.5711328,1.4946419,8.787626
1421375139210.00,-1.6925304,1.4783258,8.552316
1421375139230.00,-1.7024099,1.8021026,8.814121
1421375139250.00,-1.8597326,1.7929715,9.307645
1421375139270.00,-1.8672171,1.4379098,9.774524
1421375139290.00,-1.932631,1.4254857,9.818382
1421375139311.00,-1.9056871,1.4263839,9.627529
1421375139329.00,-1.8727555,1.7902771,9.310788
1421375139350.00,-2.388583,1.7194743,9.601633
1421375139370.00,-2.7394533,1.6411872,10.057435
1421375139390.00,-2.601141,1.0951227,9.934241
1421375139410.00,-2.5132737,1.0539583,9.428742
1421375139430.00,-2.6300309,0.9859996,8.870704
1421375139450.00,-3.0337412,1.2322376,8.858279
1421375139470.00,-3.3084202,1.0385404,9.000184
1421375139490.00,-3.5540593,0.46867537,9.83904
1421375139510.00,-3.6658769,-0.63557833,10.549013
1421375139530.00,-3.628305,-1.4200969,11.339969
1421375139550.00,-3.719166,-1.5958314,11.369457
1421375139570.00,-3.8058357,-1.0957215,11.547287
1421375139590.00,-3.7601807,-0.5414241,11.590847
1421375139610.00,-3.4549654,-0.52091676,11.056907
1421375139630.00,-3.3928444,-0.55774015,10.51683
1421375139651.00,-3.3394058,-0.30776,10.494078
1421375139670.00,-3.0412257,0.20731887,10.266999
1421375139690.00,-2.835254,0.41059616,10.219848
1421375139711.00,-2.6444008,0.120349735,10.942096
1421375139733.00,-2.5783882,-0.5312453,11.783795
1421375139756.00,-2.50055,-1.334924,12.346476
1421375139769.00,-2.3189776,-1.0386901,12.508438
1421375139788.00,-1.9648142,-0.7870633,12.591366
1421375139808.00,-2.009571,-0.8984317,12.866045
1421375139830.00,-2.0609143,-1.1202704,13.39235
1421375139853.00,-2.2878425,-1.4621594,13.428276
1421375139873.00,-2.429448,-1.3545332,13.240866
1421375139890.00,-2.5488997,-0.8345146,12.631034
1421375139914.00,-3.0529015,-0.0823288,12.110117
1421375139937.00,-3.3174014,0.48903304,11.763139
1421375139948.00,-3.1775923,0.57675064,11.079959
1421375139970.00,-2.9270132,0.09355545,10.348131
1421375139989.00,-2.6445506,-0.11496094,9.399404
1421375140008.00,-2.4104376,0.24324417,8.830736
1421375140028.00,-2.5075855,0.7455995,8.78089
1421375140048.00,-2.4559429,1.1747571,8.586145
1421375140068.00,-2.3056555,1.4052777,8.8090315
1421375140095.00,-2.1978796,0.7890093,9.006171
1421375140110.00,-2.036515,0.25806335,8.887468
1421375140130.00,-1.8676661,0.33679962,8.426277
1421375140151.00,-1.8287472,0.8783734,8.354427
1421375140174.00,-1.882635,1.3609699,8.344248
1421375140194.00,-1.8059944,1.6983682,8.027806
1421375140208.00,-1.6624429,1.9475999,7.6290355
1421375140228.00,-1.4108162,1.6714243,7.826325
1421375140248.00,-1.5019766,1.149759,8.217312
1421375140271.00,-1.5661931,0.87777466,8.70365
1421375140290.00,-1.4085709,0.9979747,8.880433
1421375140310.00,-1.1823912,0.9065149,8.25204
1421375140330.00,-0.75398207,0.58707917,7.5377254
1421375140350.00,-0.47975236,0.5414241,7.1331167
1421375140370.00,-0.59635985,1.2061917,7.090156
1421375140390.00,-0.22094055,1.4694942,7.06905
1421375140409.00,0.7405101,1.2394226,6.1119404
1421375140430.00,1.5575111,1.2169693,5.91959
1421375140456.00,1.7456698,1.5419436,7.0557275
1421375140470.00,1.1308982,1.9553838,8.812774
1421375140490.00,0.34218842,2.032174,10.434052
1421375140510.00,-0.07484436,2.1748273,10.818902
1421375140530.00,-0.10972183,1.9348764,10.889106
1421375140550.00,-0.068108365,1.6274158,10.91081
1421375140571.00,-0.015717316,1.2220588,10.658885
1421375140590.00,0.44277924,1.407523,10.241852
1421375140609.00,0.7243437,1.4882053,9.425
1421375140628.00,1.0377918,1.531615,8.702902
1421375140649.00,0.84993255,1.5001804,8.695417
1421375140668.00,0.6345305,1.1689192,8.984317
1421375140691.00,0.64575714,0.7111711,9.3663225
1421375140711.00,0.5885761,0.38544846,9.433982
1421375140730.00,0.676593,0.21779709,9.230854
1421375140750.00,0.6173163,0.5689668,8.8106785
1421375140770.00,0.43858796,0.84155,8.66099
1421375140794.00,0.6724017,0.48244676,8.308323
1421375140810.00,0.9213341,-0.03727249,8.219856
1421375140834.00,1.2189152,-0.083376616,8.340805
1421375140849.00,1.1183244,0.1646576,8.747061
1421375140868.00,0.9261241,-0.2588118,9.436526
1421375140888.00,0.5490582,-0.864602,10.309811
1421375140911.00,0.61552,-2.0944445,10.221345
1421375140930.00,0.66910857,-2.4334896,10.050999
1421375140950.00,0.72389466,-1.7318985,10.073153
1421375140970.00,0.8081694,-0.8813672,10.276879
1421375140990.00,0.94842774,-0.6755452,10.171798
1421375141010.00,0.83286804,-0.8184979,10.327773
1421375141030.00,0.3941304,-1.1279045,9.763746
1421375141050.00,-0.33380586,-1.6163388,9.562265
1421375141070.00,-0.89768326,-1.2135265,10.731184
1421375141092.00,-1.0581496,-0.8901988,11.09388
1421375141111.00,-1.5718813,-0.35236725,10.405163
1421375141130.00,-2.1267774,-0.1540297,10.198143
1421375141150.00,-2.4700136,-0.07080276,9.533226
1421375141170.00,-2.4908204,0.15043716,9.321266
1421375141190.00,-2.4355853,-0.09789643,9.873319
1421375141210.00,-2.5580306,-0.6147716,10.652298
1421375141231.00,-2.5652156,-0.92283094,11.746223
1421375141250.00,-2.3161335,-0.66147447,12.110866
1421375141270.00,-1.7974621,-0.43215135,11.687097
1421375141290.00,-1.3117223,-0.32721955,11.267369
1421375141310.00,-1.2847782,-0.049696654,10.967992
1421375141330.00,-1.1499088,0.02005829,11.070828
1421375141350.00,-1.2235556,0.001646576,11.439362
1421375141370.00,-1.1169772,0.29623398,11.759546
1421375141390.00,-0.8201445,0.3676355,11.289523
1421375141411.00,-0.506846,0.46403503,10.671159
1421375141431.00,-0.4420308,0.7092252,10.7292385
1421375141450.00,-0.48603928,0.7336244,10.421329
1421375141471.00,-0.25836274,0.29114455,10.537936
1421375141490.00,-0.14519806,-0.20761825,10.801239
1421375141510.00,0.13352233,-1.3864169,10.779085
1421375141530.00,0.09190887,-1.5220349,11.239976
1421375141550.00,-0.15208374,-1.1328442,12.294833
1421375141570.00,-0.31210098,-0.8562195,12.257112
1421375141590.00,-0.17812958,-0.7381151,11.260334
1421375141610.00,-0.16780105,-0.9181906,10.831027
1421375141630.00,-0.07738907,-0.6568341,11.026969
1421375141650.00,-0.24174729,0.22782624,11.562555
1421375141670.00,-0.75173676,0.8500822,11.319311
1421375141690.00,-1.0904824,1.3241464,10.720556
1421375141710.00,-0.916544,1.4492862,10.469229
1421375141730.00,-0.15417938,1.6711249,9.795779
1421375141750.00,0.6676117,2.0541782,9.8784075
1421375141770.00,0.8140073,2.884352,10.079739
1421375141790.00,0.59890455,3.983666,10.380613
1421375141810.00,-0.13202545,4.463119,10.402468
1421375141830.00,0.0981958,4.3050475,9.551188
1421375141850.00,0.5842351,4.74139,9.668694
1421375141870.00,0.5999524,4.7892904,10.1261425
1421375141890.00,0.8307724,4.2906775,10.205178
1421375141910.00,1.5721806,3.1748977,9.164392
1421375141930.00,1.291664,3.162324,8.377778
1421375141950.00,0.75562865,4.1608973,7.889344
1421375141970.00,0.32362702,5.223687,7.9740677
1421375141990.00,0.067210235,5.096302,7.534282
1421375142010.00,0.29249176,4.8635364,7.091503
1421375142030.00,-0.020657044,4.8952703,7.161707
1421375142050.00,-0.5031038,4.8952703,7.065008
1421375142074.00,-0.8640033,5.356461,7.0648584
1421375142091.00,-1.2156221,5.853278,7.421567
1421375142110.00,-1.2587324,5.5805454,7.5191636
1421375142130.00,-1.2552896,4.8585963,7.749086
1421375142150.00,-1.4168037,4.3935137,8.429122
1421375142170.00,-1.4825171,4.2686734,8.817115
1421375142190.00,-1.4747332,4.2174797,8.501421
1421375142210.00,-1.4097683,4.33753,8.229587
1421375142230.00,-1.3181589,4.5940967,8.390951
1421375142250.00,-1.7031583,4.8096485,8.782237
1421375142270.00,-1.6146922,4.41462,8.970396
1421375142290.00,-1.4001883,4.544849,8.847053
1421375142310.00,-1.2747492,4.777166,8.763526
1421375142330.00,-1.2443624,4.8428793,8.395442
1421375142350.00,-0.90037763,4.6693897,8.212522
1421375142370.00,-1.1457175,4.6156516,8.370443
1421375142390.00,-1.5778688,4.5113187,8.398286
1421375142410.00,-2.2162912,4.847819,8.590486
1421375142430.00,-2.5177643,5.014123,8.685389
1421375142450.00,-2.371219,4.537664,8.292156
1421375142470.00,-2.0577707,4.050427,8.192464
1421375142490.00,-1.6901354,4.1465273,8.22315
1421375142510.00,-1.4353652,4.3956094,8.3191
1421375142530.00,-0.8887019,4.395759,8.763825
1421375142550.00,-0.48588958,3.8627174,8.629405
1421375142570.00,0.07529343,3.3597634,8.648715
1421375142590.00,0.37332368,3.065176,9.00662
1421375142610.00,0.2853067,3.0964608,9.659413
1421375142630.00,0.21315674,3.1024485,10.3705845
1421375142650.00,0.028740235,3.0400283,10.330767
1421375142670.00,-0.047151946,2.793042,9.992022
1421375142690.00,-0.14519806,2.887196,9.9291525
1421375142710.00,-0.32557297,2.8831544,10.112671
1421375142730.00,-0.7191046,2.8457322,10.214608
1421375142750.00,-1.0259665,2.877616,10.291998
1421375142770.00,-1.2220588,2.8563602,10.2265835
1421375142790.00,-1.0716215,2.6755362,9.74279
1421375142810.00,-1.0660831,2.581831,9.4973
1421375142830.00,-0.9153465,2.3912773,9.269175
1421375142850.00,-0.85562074,2.3209236,9.236393
1421375142870.00,-0.8370593,2.2100043,9.626632
1421375142890.00,-0.6951544,2.1044738,9.689201
1421375142910.00,-0.7006929,1.9974463,9.689501
1421375142930.00,-0.6783893,1.9901116,9.443113
1421375142950.00,-0.5571414,1.8118323,9.324709
1421375142970.00,-0.5987549,2.002386,9.493109
1421375142991.00,-0.5622308,2.0118165,9.479787
1421375143010.00,-0.9674382,1.9125727,9.502839
1421375143030.00,-0.97432387,1.7880318,9.661359
1421375143050.00,-1.239273,1.7479151,9.675131
1421375143070.00,-1.6461269,2.0905526,9.696985
1421375143091.00,-1.7625847,2.1209395,9.499396
1421375143110.00,-1.9660116,2.0071762,9.198372
1421375143130.00,-2.0648062,2.0296295,9.383388
1421375143150.00,-2.0948937,2.1445904,9.75731
1421375143170.00,-2.0754342,2.2291644,9.831256
1421375143190.00,-2.3604414,2.2600002,10.0698595
1421375143210.00,-2.3528073,2.1508772,9.801618
1421375143230.00,-2.2683828,2.2487736,9.709259
1421375143250.00,-2.201921,2.191443,9.863139
1421375143270.00,-2.1890478,1.9251466,10.169403
1421375143290.00,-2.0907023,1.4245876,10.078093
1421375143310.00,-1.9324814,1.4064752,9.931697
1421375143330.00,-1.9808308,1.4145584,9.851165
1421375143350.00,-2.2004242,1.321003,10.086775
1421375143370.00,-2.2345533,1.19736,10.282717
1421375143390.00,-2.2043161,1.0753638,10.216105
1421375143410.00,-2.2929318,1.0538086,10.003997
1421375143430.00,-2.395768,1.233435,9.584719
1421375143450.00,-2.384242,1.5516733,9.373957
1421375143470.00,-2.4313939,1.8074913,9.15586
1421375143490.00,-2.3797512,1.8387762,9.062454
1421375143510.00,-2.3204746,1.8152751,9.263487
1421375143530.00,-2.4019053,1.4085709,9.7658415
1421375143550.00,-2.2954764,1.213227,10.068961
1421375143570.00,-2.3555017,1.1591895,10.067315
1421375143590.00,-2.451003,1.419049,10.190509
1421375143610.00,-2.5982969,1.3377681,10.2403555
1421375143630.00,-2.669848,1.2927117,10.313703
1421375143650.00,-2.6300309,1.2287947,10.14186
1421375143671.00,-2.7310708,1.3859679,9.954749
1421375143690.00,-2.7449918,1.5705341,9.78126
1421375143710.00,-2.8119025,1.5552658,9.770332
1421375143730.00,-2.782414,1.4639556,9.635313
1421375143750.00,-2.744842,1.3064831,9.567204
1421375143770.00,-2.751578,1.4953903,9.554931
1421375143790.00,-2.7662475,1.1807446,9.408236
1421375143810.00,-2.7946885,1.334924,9.211246
1421375143830.00,-2.8659403,1.5353572,9.275761
1421375143850.00,-2.7689419,1.3213023,9.45883
1421375143870.00,-2.8226802,1.1165282,9.641601
1421375143890.00,-2.8274703,1.0585986,9.73276
1421375143910.00,-2.6613157,0.9554631,9.336085
1421375143930.00,-2.566862,1.2542418,9.153615
1421375143950.00,-2.6009912,1.5618521,9.015153
1421375143970.00,-2.6503885,1.5560143,9.317524
1421375143990.00,-2.9192295,1.5148499,9.426198
1421375144010.00,-2.8125014,1.413361,9.492959
1421375144030.00,-2.9047096,1.5013778,9.549541
1421375144050.00,-2.9078531,1.6004719,9.666449
1421375144070.00,-2.981949,1.5486795,9.7674885
1421375144091.00,-2.9416828,1.3907579,9.847721
1421375144111.00,-3.0029054,1.4187497,9.794283
1421375144130.00,-2.9118948,1.565744,9.86284
1421375144150.00,-2.8729756,1.4099181,9.950857
1421375144170.00,-2.9433293,1.1885284,9.771231
1421375144191.00,-2.8047175,1.1276051,9.7095585
1421375144211.00,-2.9090507,1.2720548,9.581875
1421375144230.00,-2.936743,1.176703,9.676627
1421375144250.00,-3.0100906,1.0439291,9.577983
1421375144271.00,-2.9650342,1.0829979,9.541009
1421375144290.00,-2.9773088,1.1189232,9.427096
1421375144311.00,-2.9753628,0.98165864,9.409433
1421375144331.00,-2.9701235,1.051713,9.525442
1421375144350.00,-3.0693672,1.2225078,9.51691
1421375144371.00,-3.0231135,1.2280463,9.547596
1421375144390.00,-2.8859985,1.2130774,9.451944
1421375144411.00,-2.7831624,1.1460168,9.28594
1421375144430.00,-3.0368848,1.1189232,9.176817
1421375144450.00,-2.941982,1.1967614,9.244177
1421375144471.00,-2.8898904,1.2454102,9.359736
1421375144490.00,-2.905458,1.2208612,9.395961
1421375144510.00,-2.915637,1.1059003,9.465716
1421375144531.00,-2.9547057,1.1061996,9.345666
1421375144550.00,-3.1078372,1.081052,9.491612
1421375144570.00,-2.9368927,0.9852512,9.783056
1421375144590.00,-2.9350965,1.0657837,9.914633
1421375144610.00,-2.9181817,1.2903168,9.931996
1421375144631.00,-3.011737,1.2193643,9.738299
1421375144651.00,-3.064278,1.2135265,9.746681
1421375144671.00,-3.1331346,1.2816348,9.929602
1421375144691.00,-3.2401621,1.1563454,9.982292
1421375144710.00,-3.2789314,1.3299843,9.950109
1421375144737.00,-3.3188982,1.2784914,9.826615
1421375144750.00,-3.3197966,1.3385166,9.534123
1421375144769.00,-3.0011091,1.1526031,9.454938
1421375144789.00,-2.9741652,0.9906399,9.251362
1421375144809.00,-2.9731174,1.2359798,9.253158
1421375144829.00,-2.7735822,0.96923447,9.1849
1421375144851.00,-2.6581724,1.0448272,9.151669
1421375144871.00,-2.6849666,1.0966196,9.09344
1421375144891.00,-2.767445,1.1076965,9.10781
1421375144911.00,-2.655927,1.1895763,9.370364
1421375144930.00,-2.6750872,0.9979747,9.436526
1421375144950.00,-2.7071204,1.0740166,9.537566
1421375144982.00,-2.7336154,1.167572,9.536968
1421375144991.00,-2.6641598,1.1958632,9.58397
1421375145016.00,-2.6764343,1.1356883,9.6091175
1421375145029.00,-2.6915529,1.0436298,9.66585
1421375145049.00,-2.8605514,1.0488689,9.802366
1421375145071.00,-2.9407847,1.0304571,9.695039
1421375145091.00,-3.1275961,1.0642868,9.942474
1421375145111.00,-3.1398706,1.1907737,9.937684
1421375145131.00,-3.1482532,1.1268567,10.049353
1421375145151.00,-3.0755045,1.1461666,9.8254175
1421375145170.00,-3.0731094,1.0096505,9.645043
1421375145191.00,-2.9446764,1.1496093,9.41572
1421375145211.00,-2.8777657,1.0705737,9.448951
1421375145231.00,-2.8753707,0.90726334,9.447603
1421375145252.00,-2.8650422,0.85397416,9.484427
1421375145271.00,-2.8925848,0.9131012,9.457633
1421375145291.00,-2.9202774,0.9925859,9.214239
1421375145311.00,-2.7797196,0.9559122,9.258697
1421375145331.00,-2.8183393,0.9515712,9.3277025
1421375145351.00,-2.9196784,0.75308394,9.421857
1421375145371.00,-2.997367,0.8839119,9.506282
1421375145391.00,-2.8340566,1.018033,9.560918
1421375145411.00,-2.8496242,1.049767,9.528436
1421375145431.00,-2.8569589,1.0623409,9.633966
1421375145451.00,-2.8768675,0.9735754,9.773476
1421375145471.00,-2.9333003,0.8927435,9.638008
1421375145491.00,-2.912194,0.99842376,9.848919
1421375145511.00,-3.031496,1.0825489,9.759255
1421375145531.00,-3.0494585,1.0148895,9.850416
1421375145551.00,-3.0542486,1.0367441,9.915081
1421375145571.00,-3.043471,0.9542656,10.002649
1421375145591.00,-3.3491354,0.8174501,9.787846
1421375145611.00,-3.0870304,1.0782079,9.425749
1421375145631.00,-3.1082864,1.3100756,9.187145
1421375145651.00,-3.1807356,1.4060261,9.254655
1421375145671.00,-3.132536,1.2802876,9.494756
1421375145691.00,-3.0951138,0.89169574,9.711804
1421375145710.00,-3.0979578,0.78601545,9.714648
1421375145730.00,-3.060835,0.72389466,9.458082
1421375145751.00,-2.9020152,0.87088895,9.084608
1421375145771.00,-2.684667,0.787662,8.983718
1421375145791.00,-2.7702892,1.0198293,9.164392
1421375145811.00,-2.6854157,0.96519285,9.389974
1421375145830.00,-2.6921515,0.9289682,9.271569
1421375145850.00,-2.5888665,0.86864364,9.349558
1421375145871.00,-2.8484266,0.943488,9.679023
1421375145891.00,-2.908302,0.861758,9.981244
1421375145911.00,-2.929558,0.78856015,10.282268
1421375145931.00,-3.2174094,0.90217394,10.163864
1421375145951.00,-3.2181578,1.1178753,10.116862
1421375145971.00,-3.4142501,1.2159215,10.140962
1421375145991.00,-3.4804125,1.348396,10.075548
1421375146011.00,-3.421884,1.2115805,10.087672
1421375146030.00,-3.3636553,1.2587324,9.697734
1421375146052.00,-3.129991,1.2582834,9.226513
1421375146071.00,-3.0693672,1.1955638,9.024583
1421375146090.00,-2.7041268,1.1319461,8.7141285
1421375146111.00,-2.5577312,1.2518468,8.7207155
1421375146131.00,-2.4288492,1.2383748,8.931477
1421375146151.00,-2.2311103,1.3660593,8.938662
1421375146170.00,-2.1959336,1.131497,9.020243
1421375146191.00,-2.2912853,1.2226574,9.210048
1421375146211.00,-2.2001247,1.0645862,9.426497
1421375146232.00,-2.294279,1.0421329,9.9064
1421375146252.00,-2.6098228,1.0243199,10.270741
1421375146271.00,-2.861749,1.0460248,10.410252
1421375146291.00,-2.9312046,1.0446776,10.360854
1421375146311.00,-2.9970675,1.0226734,10.022558
1421375146331.00,-2.8057654,1.3471985,9.554032
1421375146351.00,-2.7529252,1.5977774,9.064401
1421375146371.00,-2.9264145,1.6618441,9.038505
1421375146391.00,-2.7798693,1.6007712,9.181308
1421375146411.00,-2.6463468,1.3823754,9.249415
1421375146430.00,-2.6994865,1.2581336,9.331445
1421375146451.00,-2.603536,1.1502081,9.3437195
1421375146470.00,-2.465972,1.0048604,9.389674
1421375146491.00,-2.4016058,0.963696,9.566457
1421375146511.00,-2.29862,1.0157876,9.365274
1421375146531.00,-2.239493,1.0765613,9.35345
1421375146550.00,-2.13037,1.2347822,9.392368
1421375146570.00,-2.074087,1.1617341,9.423055
1421375146591.00,-2.2863455,1.1448194,9.426048
1421375146611.00,-2.4527993,1.1933185,9.51646
1421375146630.00,-2.5947044,1.2150234,9.621841
1421375146651.00,-2.6521847,1.1478131,9.808353
1421375146671.00,-2.809358,1.0746154,9.858948
1421375146690.00,-3.1543903,0.9922865,9.965676
1421375146711.00,-3.0130842,1.0982661,9.924662
1421375146731.00,-2.9576995,1.0479708,9.858799
1421375146751.00,-3.0151799,1.1741583,9.710756
1421375146771.00,-3.15454,1.1011102,9.79533
1421375146791.00,-3.032843,1.0861413,9.693093
1421375146811.00,-2.959795,1.1485616,9.687405
1421375146831.00,-2.9178822,0.89334226,9.643097
1421375146851.00,-2.6899064,0.94932586,9.689651
1421375146871.00,-2.7430458,1.0898836,9.658515
1421375146891.00,-2.793491,0.9701326,9.565109
1421375146911.00,-2.6283844,1.0626402,9.584419
1421375146931.00,-2.4493566,0.927621,9.4739485
1421375146951.00,-2.304458,0.8184979,9.271719
1421375146971.00,-2.4432192,0.63902116,9.345965
1421375146991.00,-2.5258474,0.6774911,9.567803
1421375147011.00,-2.842888,0.7776329,9.755064
1421375147031.00,-2.8327093,0.7764354,9.893975
1421375147051.00,-3.0033545,0.73586977,9.7377
1421375147071.00,-2.961741,0.7890093,9.6901
1421375147091.00,-2.9970675,0.8267308,9.818981
1421375147111.00,-3.248844,1.0488689,9.951456
1421375147131.00,-3.421435,0.9750723,10.030043
1421375147151.00,-3.3518298,1.1347902,9.818682
1421375147170.00,-3.3064742,1.199306,9.588611
1421375147191.00,-3.0413754,1.1118878,9.233997
1421375147211.00,-2.859803,1.1982582,9.087902
1421375147231.00,-2.8274703,1.2124786,9.108708
1421375147251.00,-2.9154873,1.3790822,9.263935
1421375147271.00,-2.8614495,1.2371773,9.226364
1421375147291.00,-2.6632617,1.2756473,9.1765175
1421375147311.00,-2.4559429,1.3756393,9.060658
1421375147331.00,-2.5093818,1.2925621,9.095685
1421375147351.00,-2.4412735,1.3010944,9.480835
1421375147371.00,-2.6126668,1.1002121,9.745634
1421375147391.00,-2.7192452,1.0819501,10.130034
1421375147411.00,-2.7512786,0.9273216,10.387649
1421375147431.00,-2.6994865,0.94932586,10.564132
1421375147451.00,-2.8533664,1.2011023,10.504256
1421375147471.00,-2.9740155,1.1578423,10.401271
1421375147491.00,-2.9621902,1.2304413,10.092762
1421375147511.00,-2.9312046,1.2210109,9.470356
1421375147531.00,-2.8168423,1.2735516,9.162297
1421375147551.00,-2.7214906,1.2696598,9.057665
1421375147571.00,-2.6744883,1.3965957,9.231603
1421375147592.00,-2.6512866,1.3283377,9.3309965
1421375147612.00,-2.6021888,1.3211527,9.482631
1421375147631.00,-2.5554857,1.1505075,9.400901
1421375147651.00,-2.3719676,1.1150312,9.286538
1421375147671.00,-2.1128564,1.0416838,9.004525
1421375147691.00,-2.0411553,1.1174263,9.221724
1421375147711.00,-1.9675086,1.3196558,9.45883
1421375147731.00,-2.03412,1.1928694,9.451795
1421375147751.00,-2.2161415,1.0891352,9.609866
1421375147771.00,-2.3743625,1.0650352,9.919123
1421375147791.00,-2.3930736,1.1975098,10.04112
1421375147811.00,-2.504442,1.2915143,10.169552
1421375147831.00,-2.5403674,1.1130853,10.04561
1421375147851.00,-2.4282503,0.9801617,9.871372
1421375147871.00,-2.324516,1.0301578,9.955947
1421375147891.00,-2.4525,1.1283536,9.813144
1421375147911.00,-2.4149282,0.8535251,9.93484
1421375147931.00,-2.7108626,0.93510544,10.138866
1421375147951.00,-2.7277775,1.1626323,10.081685
1421375147971.00,-2.6644592,1.151705,9.905052
1421375147991.00,-2.7842102,1.3301339,9.724378
1421375148011.00,-2.8696826,1.5837066,9.674532
1421375148031.00,-2.8575578,1.5645465,9.661958
1421375148051.00,-2.8479776,1.3522879,9.650581
1421375148071.00,-2.740052,1.3213023,9.615405
1421375148091.00,-2.5122259,1.3742921,9.412427
1421375148111.00,-2.1165986,1.4486874,9.070238
1421375148131.00,-2.0098705,1.4097683,9.090446
1421375148151.00,-1.9285895,1.359922,9.131761
1421375148171.00,-1.72636,1.400787,9.127869
1421375148191.00,-1.6646882,1.6673827,9.175769
1421375148211.00,-2.0224442,1.6278648,9.867331
1421375148231.00,-2.1396506,1.4097683,10.378668
1421375148251.00,-2.1294718,1.1437715,10.802136
1421375148271.00,-2.2528152,1.2386742,10.974129
1421375148291.00,-2.1320164,1.3406122,10.700049
1421375148311.00,-2.0963905,1.49554,10.27179
1421375148331.00,-1.8462607,1.4775773,9.808803
1421375148351.00,-1.8282981,1.395997,9.188792
1421375148371.00,-1.6953745,1.5242802,8.900342
1421375148391.00,-1.791325,1.6386424,8.777298
1421375148411.00,-1.6483722,1.6375946,8.85304
1421375148431.00,-1.5485299,1.556613,9.044791
1421375148451.00,-1.7971628,2.0579205,9.189091
1421375148471.00,-1.6193326,1.8359321,9.220825
1421375148491.00,-1.5940351,1.6094531,9.558373
1421375148511.00,-2.0222945,2.0417542,10.486593
1421375148531.00,-2.3150856,2.0826192,10.796598
1421375148551.00,-2.126478,1.7703685,10.25742
1421375148571.00,-1.9220031,1.920656,9.792636
1421375148591.00,-1.7107924,1.9499949,9.812096
1421375148611.00,-1.5932868,1.628763,10.140063
1421375148631.00,-1.3861176,1.515299,10.1224
1421375148651.00,-1.2379258,2.0728893,9.405691
1421375148671.00,-1.1035053,2.84678,9.16589
1421375148691.00,-1.2542418,2.939138,9.467662
1421375148711.00,-1.3549823,2.7675948,9.357042
1421375148731.00,-1.2784914,2.6234446,9.159153
1421375148751.00,-1.3621674,3.0292506,8.57447
1421375148771.00,-1.3889617,3.4655933,8.580906
1421375148791.00,-1.5221846,3.35647,8.471034
1421375148811.00,-1.6847465,3.2103739,8.291408
1421375148831.00,-1.6962726,2.8499236,8.709938
1421375148851.00,-1.5837066,2.666555,8.996292
1421375148871.00,-1.6687299,2.758763,9.215586
1421375148891.00,-1.7027092,2.842589,9.240135
1421375148911.00,-1.479673,3.029999,9.298963
1421375148931.00,-1.2702584,3.2530353,9.16095
1421375148951.00,-1.5364051,3.012785,9.00677
1421375148971.00,-1.6771125,2.8449838,9.458232
1421375148991.00,-1.4914985,2.6692493,10.2933445
1421375149011.00,-1.4033318,2.2520669,10.8804245
1421375149031.00,-1.5491285,1.7184265,10.361603
1421375149051.00,-1.4236894,1.1889775,9.265133
1421375149071.00,-1.1820918,1.4241385,9.448052
1421375149097.00,-1.1915222,2.2353017,11.0724745
1421375149112.00,-1.223855,2.2923331,12.273726
1421375149130.00,-1.0946736,1.4937438,12.241244
1421375149151.00,-1.0835967,1.0425819,12.399316
1421375149170.00,-1.2404704,0.97881454,12.535382
1421375149189.00,-1.4391074,0.82747924,12.280462
1421375149211.00,-0.9675879,0.91893905,11.899654
1421375149229.00,-0.5640271,0.8247849,11.7246685
1421375149249.00,-0.46897477,0.57540345,11.686947
1421375149270.00,-0.7364685,0.45325744,11.642789
1421375149291.00,-0.98480207,0.7455995,11.862382
1421375149311.00,-1.2099339,0.87298465,11.925251
1421375149331.00,-1.2584331,0.6113287,11.989917
1421375149352.00,-1.1811937,0.40505767,11.988719
1421375149371.00,-0.91325086,0.1884581,11.963721
1421375149391.00,-0.8623567,0.103584595,12.018657
1421375149411.00,-1.0603949,0.27887008,11.721375
1421375149431.00,-1.3192067,0.71311706,11.71913
1421375149451.00,-1.1594888,0.83795744,11.453282
1421375149471.00,-0.8650511,0.24084915,11.303295
1421375149491.00,-0.72389466,0.049996033,11.178155
1421375149511.00,-0.2838098,0.07334747,10.826985
1421375149531.00,-0.13711487,0.50519943,8.603659
1421375149552.00,-1.0126442,1.4596148,10.025252
1421375149570.00,-1.5596068,1.1499088,12.2312155
1421375149590.00,-1.0961705,0.3332071,11.471844
1421375149610.00,-0.7274872,0.12633727,10.419084
1421375149643.00,-0.63932055,0.37601808,9.837692
1421375149688.00,-0.900677,0.6831793,9.917477
1421375149689.00,-0.9277707,0.9824071,10.21835
1421375149690.00,-1.0139914,0.9288185,10.326127
1421375149710.00,-0.8187973,0.7569759,9.904304
1421375149730.00,-0.7195537,0.7740404,9.894125
1421375149750.00,-0.89483917,0.8795709,9.905801
1421375149771.00,-0.72868466,0.67359924,9.75207
1421375149790.00,-0.5275031,0.6680608,9.32411
1421375149810.00,-0.3435356,0.60968214,9.298963
1421375149830.00,-0.5107379,0.5084926,9.327852
1421375149850.00,-0.80787003,0.41344026,8.929232
1421375149870.00,-0.75817335,0.98794556,8.384215
1421375149890.00,-0.6011499,1.5317646,8.440647
1421375149910.00,-0.4552034,1.3973442,8.238717
1421375149931.00,-0.5806425,0.8571176,8.456664
1421375149950.00,-0.6914122,0.3902385,8.403674
1421375149970.00,-0.39338195,0.644859,8.0315485
1421375149991.00,-0.2559677,0.85666853,7.4982076
1421375150010.00,-0.4816983,1.5615528,7.767797
1421375150030.00,-0.60743684,1.9800824,8.110584
1421375150050.00,-0.7734416,1.624871,8.344398
1421375150070.00,-0.76505905,1.5054195,8.564889
1421375150090.00,-0.4710704,1.5605049,8.225545
1421375150110.00,-0.7069798,2.428999,7.622898
1421375150130.00,-0.70024383,2.9071047,7.8953314
1421375150150.00,-0.66401917,2.4369323,8.01164
1421375150172.00,-0.44397676,2.1207898,8.373587
1421375150192.00,-0.3686833,2.0137625,8.621172
1421375150211.00,-0.71506304,2.4831862,8.682245
1421375150232.00,-0.8508307,2.9532087,8.596623
1421375150252.00,-0.60070086,2.9162357,8.58375
1421375150272.00,-0.36823425,2.7343638,8.780591
1421375150292.00,-0.34937346,2.6791286,8.80484
1421375150312.00,0.020657044,2.692451,8.49693
1421375150332.00,0.010178833,3.0662239,8.575517
1421375150352.00,-0.15837067,3.0702653,8.821755
1421375150372.00,-0.0703537,3.01997,9.048533
1421375150391.00,0.19489472,2.8916867,8.984317
1421375150412.00,0.06975494,2.863246,8.847801
1421375150432.00,0.11960129,2.9090507,9.069041
1421375150452.00,0.1434018,3.150349,9.067095
1421375150472.00,-0.15073654,3.2389646,9.124126
1421375150492.00,-0.16301101,3.2712972,9.275611
1421375150512.00,-0.09939331,3.2293844,9.004675
1421375150533.00,-0.102387086,3.359464,9.022038
1421375150552.00,-0.20701951,3.6080968,8.791967
1421375150572.00,-0.102536775,3.3362622,8.735834
1421375150594.00,-0.20222946,3.0677207,8.736881
1421375150626.00,-0.10762619,3.5971696,9.452394
1421375150632.00,-0.24354355,3.1991472,9.427995
1421375150659.00,-0.4047583,3.4841547,9.616153
1421375150675.00,-0.6316864,3.4262252,9.685759
1421375150691.00,-0.6782396,3.381019,9.628727
1421375150711.00,-0.5535489,3.4471815,9.335187
1421375150730.00,-0.64351183,3.6033068,9.388476
1421375150751.00,-0.5803432,3.7047958,9.441317
1421375150770.00,-0.59216857,3.627257,9.438622
1421375150790.00,-0.5480104,3.7594323,9.358389
1421375150810.00,-0.72793627,3.710484,9.319171
1421375150830.00,-0.67644334,3.8236487,9.216634
1421375150850.00,-0.6807843,3.6974611,9.081465
1421375150872.00,-0.69605255,3.5160384,8.988059
1421375150890.00,-0.49591872,3.459456,9.070088
1421375150910.00,-0.38425094,3.468587,9.258996
1421375150932.00,-0.34518218,3.406616,9.1765175
1421375150953.00,-0.27018815,3.398832,9.229657
1421375150975.00,-0.20672013,3.374283,9.384435
1421375150995.00,-0.29144394,3.3961377,9.339378
1421375151014.00,-0.41418868,3.468138,9.512568
1421375151033.00,-0.25836274,3.6112404,9.55029
1421375151052.00,-0.17034577,3.5573525,9.539363
1421375151072.00,-0.48289582,3.6547997,9.263786
1421375151093.00,-0.54097503,4.1290135,9.087752
1421375151127.00,-0.7723938,4.146228,9.766141
1421375151138.00,-0.72389466,3.9501357,9.354796
1421375151154.00,-0.62315416,3.9469922,9.363179
1421375151171.00,-0.58438474,3.8175116,9.3289
1421375151191.00,-0.3902385,3.7506006,9.312136
1421375151213.00,-0.2535727,3.8824763,9.293574
1421375151231.00,-0.123792574,3.7818856,8.898096
1421375151250.00,-0.20866607,3.4880466,9.190738
1421375151270.00,-0.27093658,3.2789314,9.364078
1421375151290.00,-0.05718109,3.190166,9.445957
1421375151312.00,-0.17708176,3.3307238,9.476194
1421375151331.00,-0.36314484,3.4232314,9.517209
1421375151350.00,-0.23441254,3.5437307,9.431887
1421375151370.00,-0.30207184,3.355123,9.567204
1421375151391.00,-0.34263748,3.3817675,9.515412
1421375151410.00,-0.42137375,3.5058596,9.394913
1421375151431.00,-0.2908452,3.5024166,9.2923765
1421375151450.00,-0.32871643,3.733087,9.126821
1421375151470.00,-0.27662477,3.6973114,9.056317
1421375151490.00,-0.21136047,3.6359391,9.387428
1421375151510.00,-0.15867004,3.4929862,9.4121275
1421375151530.00,-0.13786331,3.5678306,9.322015
1421375151550.00,-0.09624985,3.69312,9.25241
1421375151570.00,-0.15852036,3.6338434,9.1130495
1421375151590.00,-0.23082,3.5386415,8.980275
1421375151610.00,-0.026494903,3.6486626,8.991352
1421375151630.00,-0.06361771,3.615282,9.020093
1421375151650.00,-0.104333036,3.575914,9.370214
1421375151670.00,-0.30820906,3.7184174,9.22801
1421375151690.00,-0.28351045,3.792663,9.1367
1421375151710.00,-0.18770966,3.833528,9.048683
1421375151730.00,-0.30686188,3.7199144,9.048384
1421375151751.00,-0.278421,3.7958066,9.058113
1421375151770.00,-0.2830614,3.8190084,9.054371
1421375151790.00,-0.280367,3.8657112,9.11754
1421375151811.00,-0.26375154,3.7847297,9.084608
1421375151832.00,-0.25806335,3.633095,8.960965
1421375151852.00,-0.11436218,3.6961138,9.137748
1421375151872.00,-0.18157242,3.816314,9.254355
1421375151892.00,-0.042212218,3.834127,9.327553
1421375151912.00,-0.056582335,3.6384838,9.258996
1421375151932.00,-0.15313156,3.5655854,9.284892
1421375151966.00,-0.14744338,3.6155813,9.2063055
1421375151971.00,-0.1818718,3.7577856,9.283095
1421375151991.00,-0.35311568,3.7386255,9.089398
1421375152010.00,-0.24249573,3.8014948,8.770262
1421375152030.00,-0.25821304,3.872597,8.859028
1421375152051.00,-0.26839188,3.9445972,8.98731
1421375152070.00,-0.24758515,3.9433997,9.003028
1421375152090.00,-0.17289047,3.9978864,9.01665
1421375152113.00,-0.39877075,3.8919067,9.197474
1421375152132.00,-0.15417938,4.012107,9.116043
1421375152152.00,-0.20567231,4.1715255,9.3172245
1421375152172.00,-0.21001327,4.089945,9.298364
1421375152192.00,-0.3556604,3.8553827,9.415421
1421375152212.00,-0.34488282,3.858077,9.615704
1421375152233.00,-0.4405339,3.6417768,9.448801
1421375152253.00,-0.43649232,3.7029996,9.556277
1421375152272.00,-0.39353165,3.9333706,9.576785
1421375152293.00,-0.33799714,3.857179,9.294172
1421375152313.00,-0.3186873,3.7359312,9.228759
1421375152332.00,-0.39068756,3.882626,9.297765
1421375152353.00,-0.22902374,3.767216,9.1991205
1421375152374.00,-0.2785707,3.773503,9.302405
1421375152393.00,-0.22857468,3.66917,9.24747
1421375152412.00,-0.2866539,3.6295023,9.180409
1421375152433.00,-0.3939807,3.757636,9.155112
1421375152452.00,-0.47331575,3.760031,9.039552
1421375152472.00,-0.36539018,3.903283,9.104068
1421375152492.00,-0.43334883,3.8007462,9.136999
1421375152512.00,-0.43469605,3.7510498,9.132509
1421375152532.00,-0.6069878,3.9227426,9.135203
1421375152552.00,-0.5137317,3.745511,9.033115
1421375152572.00,-0.46238846,3.725453,9.100026
1421375152593.00,-0.36838394,3.7932618,9.220675
1421375152613.00,-0.5522017,3.7553906,9.116941
1421375152637.00,-0.57794815,3.7935612,9.191636
1421375152664.00,-0.4260141,3.6697686,9.31468
1421375152674.00,-0.45355684,3.542234,9.217233
1421375152691.00,-0.46508285,3.7419186,9.244177
1421375152711.00,-0.4019142,3.6718643,9.244776
1421375152746.00,-0.4552034,3.704646,9.285641
1421375152750.00,-0.61147845,3.6742594,9.379944
1421375152773.00,-0.5584886,3.6925213,9.347162
1421375152792.00,-0.37736526,3.5702257,9.50224
1421375152810.00,-0.4870871,3.8537362,9.181008
1421375152831.00,-0.46343628,3.6351905,9.347162
1421375152850.00,-0.4709207,3.4179924,9.477691
1421375152876.00,-0.5749544,3.7591329,9.4507475
1421375152893.00,-0.5628296,3.756139,9.377849
1421375152967.00,-0.74544984,3.8118234,9.321116
1421375152967.00,-0.58079225,3.9016366,9.154064
1421375152969.00,-0.67479676,3.7308416,9.340726
1421375152970.00,-0.5236111,3.7299435,9.168135
1421375153017.00,-0.5715115,3.8890626,9.27142
1421375153018.00,-0.613125,3.6812947,9.211395
1421375153324.00,-0.5192702,3.7080889,9.258547
1421375153325.00,-0.470771,3.5765126,9.234596
1421375153326.00,-0.7430548,3.7764966,9.157806
1421375153331.00,-0.49023056,3.6766543,9.191037
1421375153332.00,-0.4975653,3.6817439,9.321865
1421375153333.00,-0.40400985,3.7534447,9.300909
1421375153334.00,-0.5054988,3.8743932,9.123078
1421375153335.00,-0.4447252,3.8622684,9.131761
1421375153336.00,-0.5677693,3.9276824,9.340127
1421375153338.00,-0.4629872,3.6958146,9.336834
1421375153339.00,-0.46134064,3.6938686,9.3293495
1421375153340.00,-0.4487668,3.5827994,9.364227
1421375153341.00,-0.40520737,3.6380346,9.279203
1421375153343.00,-0.40146515,3.6902761,9.298064
1421375153370.00,-0.37841308,3.7468584,9.174122
1421375153371.00,-0.46523255,3.7251534,9.184451
1421375153426.00,-0.47556105,3.5913317,9.350306
1421375153427.00,-0.2999762,3.6362383,9.303154
1421375153432.00,-0.26360184,3.828289,9.088949
1421375153483.00,-0.4297563,3.7660186,9.165141
1421375153484.00,-0.5054988,3.8029916,9.317674
1421375153502.00,-0.3860472,3.685935,9.321416
1421375153554.00,-0.5144801,3.6390824,9.235495
1421375153554.00,-0.4867877,3.7967048,9.35764
1421375153555.00,-0.44741958,3.7712576,9.23325
1421375153572.00,-0.40894958,3.69312,9.196575
1421375153591.00,-0.46792695,3.721561,9.186846
1421375153613.00,-0.43200165,3.6289036,9.176218
1421375153632.00,-0.542921,3.7688627,9.163644
1421375153714.00,-0.5216652,3.782035,9.184301
1421375153714.00,-0.42556503,3.6540513,9.267079
1421375153716.00,-0.4778064,3.8722975,9.191636
1421375153716.00,-0.32632142,3.9954913,8.8829775
1421375153737.00,-0.36553985,3.5606456,8.927135
1421375153752.00,-0.34143996,3.6323464,8.952134
1421375153771.00,-0.34143996,3.588787,9.226962
1421375153790.00,-0.42571473,3.5988162,9.265882
1421375153811.00,-0.32871643,3.7181182,9.09823
1421375153838.00,-0.13471985,2.9512627,10.86291
1421375153851.00,-0.30386811,3.519631,9.238788
1421375153871.00,-0.07394623,3.437302,8.929381
1421375153890.00,-0.064964905,3.8398151,9.289682
1421375153912.00,-0.22722748,3.647465,8.850495
1421375153934.00,0.069305874,3.6868331,8.888067
1421375153956.00,-0.013172608,3.43835,9.23325
1421375154018.00,-0.10193802,3.5440302,9.50254
1421375154019.00,0.14804214,3.401826,8.987909
1421375154020.00,0.060474243,3.3251853,9.320518
1421375154043.00,0.19130218,3.1822326,9.428294
1421375154051.00,0.07304809,3.5465748,8.90573
1421375154070.00,-0.35506165,4.3031015,9.1608
1421375154092.00,0.040715333,3.990402,9.1608
1421375154110.00,-0.042661287,3.5670822,9.29537
1421375154136.00,-0.15597564,3.6640806,9.619446
1421375154151.00,-0.22243744,3.5893857,9.453142
1421375154176.00,-0.37362304,3.3910482,9.51646
1421375154191.00,-0.29548553,3.4552648,9.689501
1421375154211.00,-0.41164398,3.5218763,9.70432
1421375154232.00,-0.5269043,3.6312988,9.543405
1421375154250.00,-0.43544447,3.5081048,9.604029
1421375154274.00,-0.53019744,3.6161802,9.633667
1421375154337.00,-0.49292496,3.5874398,9.334439
1421375154338.00,-0.5312453,3.5221756,9.046588
1421375154339.00,-0.5348378,3.6510575,9.504036
1421375154364.00,-0.43185195,3.477269,9.472602
1421375154371.00,-0.5427713,3.7184174,9.020841
1421375154390.00,-0.7206015,4.032764,9.461974
1421375154411.00,-0.8966354,3.5179844,9.914333
1421375154430.00,-0.49038026,3.4275723,9.642049
1421375154456.00,-0.49277526,3.622467,9.616153
1421375154496.00,-0.35057098,3.7967048,9.312883
1421375154500.00,-0.27378067,4.052223,8.609796
1421375154510.00,-0.42526567,3.8637652,9.270822
1421375154531.00,-0.23980133,3.4521213,9.586065
1421375154550.00,0.04430786,3.424878,9.238189
1421375154570.00,0.02574646,3.5142422,8.940159
1421375154646.00,-0.5108876,4.073479,9.029972
1421375154647.00,-0.48768586,3.929329,9.148825
1421375154647.00,-0.15283218,3.5102005,8.965606
1421375154651.00,0.14953904,3.4274225,9.326206
1421375154674.00,0.09220825,3.7000058,9.349109
1421375154691.00,-0.21390519,3.8449044,9.31947
1421375154711.00,-0.19070344,4.1468267,9.139994
1421375154738.00,-0.045205995,4.1128473,8.866512
1421375154751.00,0.15283218,4.0127053,8.657397
1421375154773.00,0.32587233,3.9968386,8.738229
1421375154794.00,0.54726195,4.111201,8.892259
1421375154811.00,0.63557833,3.8091288,9.168584
1421375154832.00,0.8467891,3.4048197,8.830437
1421375154852.00,1.1144326,2.9210258,8.465197
1421375154872.00,1.2928615,2.0002904,8.599018
1421375154892.00,0.7560777,2.8720775,7.9138927
1421375154911.00,1.2093352,3.179089,8.513546
1421375154997.00,1.434467,2.8086095,9.45434
1421375154998.00,1.207539,2.5414152,9.561068
1421375154999.00,0.75278455,2.4486082,9.251661
1421375155000.00,-1.0594968,3.2841706,11.331137
1421375155061.00,-0.15881974,2.1796174,11.949202
1421375155064.00,-0.25926086,3.6184254,10.394834
1421375155065.00,-0.43604323,3.8287382,10.152039
1421375155070.00,-0.1978885,3.1109807,9.706864
1421375155091.00,-0.014519806,3.0502071,9.302405
1421375155136.00,-0.20342697,3.2183075,8.273595
1421375155137.00,-0.032332763,3.153642,8.216264
1421375155154.00,0.710722,2.4197183,9.677376
1421375155170.00,0.60174865,2.6966424,9.626183
1421375155190.00,0.1484912,2.8171418,8.697064
1421375155212.00,0.8387059,3.0421238,9.24268
1421375155230.00,0.7336244,2.9925768,7.316635
1421375155250.00,0.5550458,4.16434,5.8314233
1421375155270.00,-2.5382717,6.9398685,15.137272
1421375155337.00,-1.8988014,7.2158947,10.413545
1421375155337.00,0.3490741,6.687194,6.233338
1421375155338.00,0.21644989,6.4662533,4.4912605
1421375155364.00,1.2475058,5.4337006,7.892188
1421375155371.00,2.3671775,3.7990997,7.833959
1421375155390.00,2.309248,2.8042686,6.192622
1421375155410.00,2.4243586,3.021916,5.953719
1421375155434.00,2.9648845,2.9952712,6.469846
1421375155453.00,3.3771272,1.4239888,6.326594
1421375155471.00,2.5153692,0.8815169,6.3994923
1421375155491.00,0.5442682,1.6042141,5.5799465
1421375155516.00,-0.3026706,3.0991552,4.247717
1421375155531.00,1.2879218,2.2254221,4.963528
1421375155552.00,1.6584014,0.52346146,5.838459
1421375155571.00,0.55235136,-0.7538324,7.4495587
1421375155591.00,2.1989274,-1.207988,7.4471636
1421375155686.00,5.3034716,0.5119354,6.6264205
1421375155688.00,6.9052906,1.7390835,7.1379066
1421375155690.00,5.3910394,0.7589218,7.341633
1421375155691.00,4.869823,-0.13142669,6.4363155
1421375155692.00,6.4536796,0.21674927,5.6447616
1421375155712.00,8.515343,1.0560539,5.677843
1421375155731.00,8.6315,-0.022004241,6.09278
1421375155751.00,9.613159,-4.0540195,5.930517
1421375155770.00,12.756473,-2.7159522,5.2415004
1421375155790.00,16.280294,-0.4403842,-0.21809646
1421375155811.00,17.250128,-5.1028886,1.4142591
1421375155835.00,13.696518,-11.784843,12.433594
1421375155857.00,11.442355,-9.341175,6.231392
1421375155878.00,12.297378,-7.0418067,3.4003289
1421375155894.00,11.70446,-5.354515,2.0742366
1421375156125.00,10.351424,-7.140601,6.5494804
1421375156126.00,10.129286,-7.9674816,6.542894
1421375156127.00,8.940309,-6.446794,2.0251386
1421375156128.00,7.857311,-8.394244,1.1445199
1421375156129.00,6.4382615,-9.171128,0.9574091
1421375156130.00,5.8323216,-8.331225,0.7470964
1421375156131.00,6.3839245,-8.135432,1.29361
1421375156132.00,6.898704,-9.1748705,3.4126034
1421375156167.00,7.1067715,-7.2717285,1.8604811
1421375156168.00,6.4098206,-8.990753,3.6549494
1421375156169.00,4.7595024,-7.2712793,4.0993752
1421375156170.00,4.3451643,-6.581663,2.0116668
1421375156171.00,5.3121533,-6.255791,1.4952407
1421375156172.00,5.7943006,-6.094127,-0.7418573
1421375156209.00,2.5286915,-2.8792624,-1.5721806
1421375156213.00,0.7066805,-2.2261705,2.0960913
1421375156248.00,3.509452,-2.805466,3.1716046
1421375156336.00,3.0335915,-1.3308824,3.0539494
1421375156337.00,4.38094,-4.264482,4.775819
1421375156363.00,5.320835,-6.464607,3.3636553
1421375156363.00,6.9403176,-6.3656626,1.2632232
1421375156431.00,9.419612,-10.934162,1.8784437
1421375156432.00,8.682545,-10.987002,3.9026842
1421375156452.00,7.298822,-9.105266,2.8886929
1421375156482.00,10.300829,-10.987152,2.361639
1421375156504.00,6.949299,-6.6207323,5.8948917
1421375156511.00,3.8255947,-6.2887225,6.1534038
1421375156535.00,-1.3117223,-3.4161959,3.070415
1421375156551.00,-0.89364165,-2.7961853,3.9933958
1421375156571.00,-0.28485763,-0.038020935,4.3843827
1421375156592.00,-0.23441254,-0.4831952,1.8073416
1421375156611.00,3.2636633,-2.703079,4.3575883
1421375156631.00,6.8769994,-3.7610788,6.579418
1421375156696.00,5.7438555,-3.319497,4.9129333
1421375156697.00,3.4881964,-4.1718245,5.584437
1421375156698.00,4.4215055,-8.188272,8.286319
1421375156711.00,8.805439,-11.034304,8.998387
1421375156731.00,9.440119,-8.211774,7.0750375
1421375156752.00,4.9811916,-7.435787,4.051026
1421375156771.00,2.821333,-6.382727,3.6568954
1421375156791.00,3.231031,-6.0409875,3.0105395
1421375156821.00,6.083649,-7.49207,6.176007
1421375156833.00,6.7499137,-7.9902344,5.461393
1421375156851.00,6.3065357,-7.70388,3.7250037
1421375156871.00,6.2165728,-7.488927,3.3438964
1421375156957.00,5.287305,-5.7404127,1.2546909
1421375156958.00,5.160369,-6.6906366,1.409469
1421375156959.00,5.8755817,-8.28542,2.639611
1421375156961.00,6.286477,-9.0920925,0.43843827
1421375156973.00,4.792584,-8.821456,1.2359798
1421375156991.00,-1.6500188,-7.717352,5.3929853
1421375157013.00,2.701582,-8.253238,6.799011
1421375157031.00,6.239325,-6.7636847,1.852847
1421375157051.00,3.683091,-7.615114,-0.16091537
1421375157072.00,0.015118561,-7.2932835,3.7540433
1421375157091.00,1.0662328,-8.025112,4.653523
1421375157112.00,5.8992324,-9.121133,4.124673
1421375157131.00,9.813293,-4.613556,4.083209
1421375157151.00,7.043453,-7.503746,2.3379881
1421375157172.00,6.6803083,-7.7145076,2.6081762
1421375157191.00,6.997349,-5.402266,1.5468832
1421375157211.00,6.7346454,-5.4569025,1.7955163
1421375157274.00,6.0757155,-7.832163,2.5960515
1421375157275.00,5.667065,-10.790162,4.1743693
1421375157275.00,9.327105,-10.573563,4.902006
1421375157295.00,5.8142095,-12.467274,6.5999255
1421375157312.00,0.9801617,-12.983551,3.6705172
1421375157332.00,-6.0843973,-11.623179,2.8542645
1421375157351.00,-7.837851,-9.340726,0.6743477
1421375157371.00,-0.59531206,-8.410859,-1.228645
1421375157391.00,0.053289186,-9.674981,0.25417146
1421375157411.00,-0.019010467,-10.033336,0.68422717
1421375157430.00,3.0946646,-8.859776,-2.9184809
1421375157454.00,1.0627899,-6.7638345,-2.8735743
1421375157473.00,-0.6038443,-9.491163,1.9666104
1421375157493.00,5.307812,-10.626851,4.643793
1421375157513.00,10.388996,-10.001003,1.0398875
1421375157531.00,7.7448945,-9.98768,2.2585034
1421375157553.00,6.9159184,-10.290201,0.36958146
1421375157618.00,5.283862,-7.1411996,-3.623515
1421375157619.00,4.3697133,-7.2771173,0.19190094
1421375157620.00,3.290757,-8.814271,0.9786649
1421375157632.00,1.7107924,-11.24312,-0.49546966
1421375157652.00,2.8764184,-9.530381,-1.6347505
1421375157672.00,3.38536,-8.208331,-1.2057426
1421375157692.00,1.8279986,-8.075856,-1.345552
1421375157712.00,-2.8460317,-10.206077,-0.47690827
1421375157731.00,-7.985594,-9.864786,1.6334033
1421375157751.00,-5.9059687,-13.471236,-1.9815793
1421375157771.00,-4.1502695,-11.32485,-2.6723928
1421375157791.00,-2.9918284,-8.387958,-1.3539345
1421375157813.00,-0.42526567,-8.09786,-1.1102413
1421375157836.00,4.028423,-6.8873277,-1.5703844
1421375157896.00,6.6071105,-7.408544,-1.357527
1421375157897.00,5.6297927,-10.207573,-5.78487
1421375157898.00,2.8768675,-9.608668,-3.82305
1421375157918.00,1.7964144,-8.925489,-1.7655785
1421375157931.00,1.8714083,-6.846762,-2.2171893
1421375157951.00,1.5199393,-4.5138636,-1.470542
1421375157971.00,1.7693207,-8.592133,0.3767665
1421375157991.00,0.91774154,-10.285412,-0.7893086
1421375158011.00,-0.13756393,-9.349258,-2.0204983
1421375158034.00,-1.5178436,-9.639504,-2.448758
1421375158055.00,-1.9155666,-9.857451,-2.4176226
1421375158073.00,-0.138013,-12.361145,-1.8922151
1421375158097.00,2.1685405,-13.572276,-1.6064594
1421375158114.00,2.0507355,-11.8742075,-1.6735198
1421375158131.00,1.7170793,-10.68044,-2.2140458
1421375158151.00,1.6627423,-8.890911,-3.4618511
1421375158171.00,3.1753469,-10.835218,-2.4219635
1421375158191.00,-0.21914428,-6.826105,-2.7933412
1421375158255.00,1.9990928,-8.562045,-1.5197896
1421375158256.00,1.5295193,-7.608678,-0.64411056
1421375158257.00,0.7048842,-7.0388126,-0.7870633
1421375158279.00,-2.4427702,-6.357729,3.6094441
1421375158291.00,-2.6873617,-3.750002,-1.192121
1421375158312.00,-2.0892055,-3.3313224,-0.5373825
1421375158331.00,-1.8851798,-4.557123,-2.9003687
1421375158351.00,-2.6614654,-6.142177,-2.9409342
1421375158372.00,-2.6503885,-7.4673715,-1.9618204
1421375158392.00,-1.2064911,-8.806337,-1.1160791
1421375158411.00,-0.4019142,-8.957073,0.3543132
1421375158431.00,0.31898665,-6.1703186,-3.2491434
1421375158453.00,0.88466036,-5.4401374,-0.065413974
1421375158474.00,0.31928605,-5.6880217,1.8794916
1421375158493.00,-0.27153534,-5.204078,0.33485368
1421375158516.00,0.5959108,-7.7429485,-0.16001724
1421375158591.00,7.759414,-17.728233,7.1726346
1421375158592.00,2.0055294,-19.314035,-3.064278
1421375158593.00,-2.1616547,-8.956924,-6.310577
1421375158594.00,-2.8562105,-5.794001,-1.9049387
1421375158614.00,-3.916306,-8.116721,1.8516495
1421375158633.00,-3.9510338,-8.497379,2.3213727
1421375158651.00,-4.8460226,-9.870174,0.47601014
1421375158672.00,-3.9704933,-12.014017,-0.5658234
1421375158694.00,-4.0104604,-11.893068,-0.6915619
1421375158711.00,-5.3858004,-9.303154,-0.85846484
1421375158731.00,-5.1418076,-9.120534,-0.45759842
1421375158752.00,-3.5235229,-8.798404,-0.37482056
1421375158771.00,-2.665507,-8.78568,0.026345216
1421375158791.00,-2.6048832,-9.075927,0.055534516
1421375158811.00,-2.5966501,-9.440718,-0.16825013
1421375158886.00,-2.6702971,-9.106762,-0.19279908
1421375158888.00,-3.0130842,-9.422156,-0.34054184
1421375158889.00,-3.1624737,-9.503139,-0.8497829
1421375158891.00,-2.9488678,-8.794063,-0.8111632
1421375158912.00,-2.6629624,-9.585318,-0.32018417
1421375158932.00,-2.617008,-10.053095,-0.8690927
1421375158951.00,-2.7105634,-9.714349,-0.8295749
1421375158971.00,-2.871778,-9.313782,-0.100291446
1421375158992.00,-2.8521688,-9.397608,-0.4379892
1421375159011.00,-2.9250672,-9.193881,-0.40326142
1421375159033.00,-2.9931757,-9.105715,-0.3903882
1421375159058.00,-2.7777736,-8.673114,-0.48364425
1421375159071.00,-3.0138328,-9.95415,-0.088016964
1421375159091.00,-3.0364356,-9.8044615,-0.45969406
1421375159111.00,-3.1371763,-9.8463745,-0.42242157
1421375159131.00,-3.2157629,-9.264235,-1.2983999
1421375159151.00,-2.933899,-9.118288,-0.7933502
1421375159206.00,-2.2968237,-8.067324,0.030087434
1421375159207.00,-2.5822802,-9.5934,-0.6261479
1421375159211.00,-3.3534765,-9.784553,-0.7882608
1421375159232.00,-3.5121465,-9.566906,-0.4430786
1421375159251.00,-3.5649865,-9.77138,-1.0559043
1421375159271.00,-3.2831228,-9.7393465,-1.1446697
1421375159291.00,-2.9939241,-9.6742325,-1.2540921
1421375159314.00,-3.0048513,-9.373657,-1.4156063
1421375159336.00,-3.0171258,-9.509126,-1.5587087
1421375159355.00,-2.9190798,-9.842183,-2.2182372
1421375159371.00,-2.873275,-10.134525,-2.7616072
1421375159392.00,-2.9530592,-10.084529,-3.2633638
1421375159412.00,-2.4718099,-10.467583,-3.7395236
1421375159432.00,-2.0198996,-10.577603,-3.2792308
1421375159453.00,-1.9419118,-10.703043,-1.8805394
1421375159473.00,-2.217339,-10.221495,-1.3223501
1421375159524.00,-2.6438022,-9.42485,-1.6839981
1421375159525.00,-3.8365219,-7.866891,-1.0210267
1421375159531.00,-4.341572,-7.1331167,-0.47196853
1421375159552.00,-3.1933095,-7.100035,-1.3454022
1421375159571.00,-1.8817369,-7.825577,-1.9996916
1421375159591.00,-1.3895603,-7.851922,-2.002835
1421375159611.00,-1.3117223,-7.6658587,-1.9895128
1421375159634.00,-1.2499008,-7.797136,-2.2333558
1421375159654.00,-1.203198,-7.8761716,-2.4430697
1421375159675.00,-1.1964619,-8.262817,-2.74095
1421375159693.00,-1.5471826,-8.230335,-2.9767098
1421375159716.00,-1.995201,-8.2550335,-3.4995725
1421375159733.00,-1.735491,-8.475375,-4.4273434
1421375159753.00,-1.581611,-8.409063,-5.1437535
1421375159777.00,-1.8455123,-7.9806542,-4.878954
1421375159794.00,-1.5651453,-8.031099,-5.1903067
1421375159813.00,-1.4076728,-8.396339,-5.142107
1421375159834.00,-1.2793895,-8.649613,-4.9740067
1421375159898.00,-0.96773756,-9.518406,-4.425547
1421375159899.00,-1.0368937,-9.966425,-3.8339772
1421375159900.00,-1.9540366,-9.789792,-3.9978864
1421375159911.00,-3.2726445,-11.075618,-4.1007223
1421375159932.00,-2.6509871,-13.790523,-4.9912205
1421375159951.00,0.3595523,-14.391672,-4.9711623
1421375159971.00,-1.9965482,-8.808283,0.38185593
1421375159992.00,-5.5125866,-4.6143045,2.3709197
1421375160022.00,-7.7703414,-4.1579037,1.1169772
1421375160032.00,-7.986941,-5.4802537,-0.35940263
1421375160053.00,-5.2926936,-8.974288,1.6395406
1421375160072.00,-0.49546966,-12.823383,2.1868026
1421375160093.00,1.8303937,-12.303215,0.028440857
1421375160111.00,0.88286406,-10.399923,1.0743159
1421375160132.00,-1.1292517,-9.35764,1.484014
1421375160198.00,-2.2849984,-9.152118,1.7878821
1421375160199.00,-2.3137386,-9.731712,0.8878038
1421375160200.00,-2.3218217,-9.958791,-0.5851332
1421375160211.00,-2.5402176,-9.774673,-0.4790039
1421375160236.00,-3.0894256,-9.344917,0.50744474
1421375160254.00,-3.42862,-8.782237,1.1115885
1421375160273.00,-2.4218137,-8.692723,1.3906082
1421375160294.00,-1.0361453,-9.221873,0.95785815
1421375160316.00,-0.15103592,-10.204729,0.80936694
1421375160340.00,-0.16151413,-10.117311,0.07349716
1421375160352.00,-0.7836205,-9.787697,-0.07903565
1421375160372.00,-1.5438895,-9.509126,-0.003143463
1421375160392.00,-1.9972966,-9.222622,-0.017064514
1421375160412.00,-2.0396585,-9.206006,0.11855347
1421375160433.00,-1.9484981,-9.445059,-0.17453705
1421375160458.00,-1.8164726,-9.472602,0.085771635
1421375160523.00,-1.6625926,-9.675729,0.2802173
1421375160525.00,-1.2844789,-9.719888,0.3092569
1421375160526.00,-1.0418335,-10.132279,-0.37856278
1421375160533.00,-0.48753616,-10.439441,-1.0620415
1421375160551.00,-0.45415556,-11.169473,-0.11645783
1421375160572.00,-1.5368541,-11.237132,0.5204677
1421375160594.00,-2.269281,-11.408675,-1.0370435
1421375160612.00,-1.0653347,-13.151801,-1.5841557
1421375160632.00,0.16121475,-15.100748,-0.9583072
1421375160652.00,-0.15567628,-14.95555,-1.1455678
1421375160672.00,-1.9776874,-13.533058,-1.1798465
1421375160691.00,-4.0498285,-11.264975,-2.0791764
1421375160712.00,-5.368137,-10.865904,-1.0422826
1421375160732.00,-5.833519,-10.046957,2.5265958
1421375160754.00,-5.670508,-10.322235,2.6723928
1421375160773.00,-4.430187,-10.167307,1.6964222
1421375160793.00,-2.837649,-9.734407,0.65369064
1421375160867.00,-1.7495618,-9.542506,0.08307724
1421375160868.00,-1.4837146,-9.299262,-1.0237212
1421375160872.00,-1.7134868,-9.274863,-0.59411454
1421375160873.00,-2.2499712,-8.593031,0.9437874
1421375160891.00,-2.711162,-7.342681,1.3162129
1421375160913.00,-2.89019,-6.1396327,0.60608965
1421375160931.00,-2.8921359,-6.2031007,0.07738907
1421375160955.00,-2.8651917,-6.6898885,-0.34278718
1421375160984.00,-2.537673,-6.8493066,-0.46657974
1421375160992.00,-1.9480491,-6.701564,-0.2853067
1421375161012.00,-1.9109262,-6.689589,-0.7312294
1421375161031.00,-1.8392253,-6.7404833,-1.3201048
1421375161051.00,-1.9360739,-6.6503706,-1.7224681
1421375161075.00,-2.3454726,-6.8787956,-2.2544618
1421375161093.00,-2.347119,-7.2437367,-2.9831464
1421375161174.00,-2.3321502,-8.393346,-4.322711
1421375161175.00,-1.9375708,-10.701546,-5.8570204
1421375161176.00,-0.54501665,-13.274995,-6.2819867
1421375161177.00,-0.39607635,-12.878469,-5.7625666
1421375161195.00,-1.0960208,-11.561508,-4.86638
1421375161212.00,-1.389261,-10.589878,-4.084556
1421375161232.00,-1.4088702,-9.10781,-3.7338355
1421375161251.00,-1.8429675,-7.9626913,-3.2410603
1421375161271.00,-2.4839346,-7.5092845,-2.910248
1421375161292.00,-3.1364279,-7.696545,-2.5629702
1421375161312.00,-3.8666093,-7.7968364,-3.3865576
1421375161332.00,-4.5180545,-10.381362,-4.7930326
1421375161352.00,-4.1535625,-16.024776,-5.3657417
1421375161372.00,-4.2963657,-18.031353,-4.4641666
1421375161392.00,-4.4117756,-7.935448,2.6524842
1421375161412.00,-5.264702,-2.7689419,5.3491263
1421375161434.00,-6.426436,-2.9813502,5.268444
1421375161453.00,-5.821544,-3.7742515,3.8624182
1421375161526.00,-3.6107912,-8.183183,4.977749
1421375161527.00,-0.382305,-14.298266,7.177125
1421375161528.00,3.529211,-17.729582,-2.4990532
1421375161536.00,2.972369,-12.730427,-4.1872425
1421375161552.00,-1.5620018,-9.494606,-0.36389327
1421375161571.00,-3.7949085,-8.172555,1.1744577
1421375161592.00,-3.7399726,-8.712333,-0.30027556
1421375161614.00,-1.9434086,-9.457932,-0.31105316
1421375161635.00,-0.9925859,-9.068143,0.6065387
1421375161654.00,-0.82268924,-8.520881,1.5602056
1421375161675.00,-1.7480649,-8.592432,1.3361216
1421375161694.00,-2.9096494,-8.608299,0.9861493
1421375161713.00,-3.0115874,-8.812175,0.41388932
1421375161734.00,-2.824177,-8.856333,0.26704466
1421375161754.00,-3.0335915,-8.922196,0.4460724
1421375161775.00,-3.3793726,-9.256002,0.21240829
1421375161850.00,-3.4115555,-9.268426,-0.5474117
1421375161851.00,-2.8373497,-9.5721445,-1.5323634
1421375161852.00,-1.4606625,-10.196945,-1.0350975
1421375161853.00,0.3158432,-11.507171,0.09969269
1421375161872.00,1.7591418,-11.894266,0.58992326
1421375161892.00,0.33126113,-12.400662,-0.43993515
1421375161912.00,-2.17363,-11.947255,-1.4726377
1421375161932.00,-1.5115567,-12.887151,-1.4750327
1421375161952.00,-0.1074765,-14.463223,-1.0867401
1421375161972.00,0.8560698,-14.492562,-1.1564951
1421375161992.00,-0.21839584,-13.6150875,0.34967285
1421375162012.00,-2.5869205,-11.639945,1.7250128
1421375162035.00,-3.9299276,-10.412796,3.348836
1421375162053.00,-4.940925,-11.227103,3.4039216
1421375162074.00,-4.8485675,-11.040891,2.9292586
1421375162095.00,-3.2509396,-10.839559,1.5651453
1421375162173.00,-0.7905061,-11.188184,-0.34428406
1421375162174.00,-0.12394226,-11.228451,0.6101312
1421375162175.00,-1.255589,-10.401121,3.3834143
1421375162176.00,-2.1887484,-9.938283,3.3632061
1421375162194.00,-2.7797196,-8.678952,2.1844075
1421375162211.00,-3.382965,-7.5405693,1.9332298
1421375162232.00,-4.0254292,-7.0816236,1.8118323
1421375162252.00,-4.2219706,-6.4325733,1.7384849
1421375162272.00,-4.0272255,-6.2550426,1.6560063
1421375162292.00,-4.1445813,-5.997877,1.5510745
1421375162312.00,-4.739145,-5.6610775,0.6477031
1421375162332.00,-4.964726,-5.269492,-0.6759943
1421375162354.00,-5.1695,-5.2355127,-2.2387445
1421375162373.00,-4.795877,-5.463189,-2.7324178
1421375162393.00,-4.253405,-7.096742,-3.521577
1421375162414.00,-2.5128245,-11.081306,-5.2043777
1421375162433.00,0.087118834,-14.935192,-6.1309505
1421375162502.00,2.2017715,-16.178207,-5.4760623
1421375162503.00,1.5754738,-12.497361,-6.2474084
1421375162504.00,0.18247055,-9.462872,-4.4653645
1421375162521.00,-1.4832655,-8.504265,-1.275797
1421375162534.00,-3.3679962,-7.849377,-0.04086502
1421375162555.00,-4.836742,-9.971663,-0.25042924
1421375162572.00,-5.184768,-15.285763,-1.7396823
1421375162592.00,-4.1517663,-15.807279,-2.896327
1421375162612.00,-3.8212538,-8.517438,-1.0041119
1421375162632.00,-4.1517663,-2.9376411,4.3258543
1421375162652.00,-7.1447926,-1.5597565,6.17451
1421375162676.00,-7.3223233,-4.8175817,3.3895514
1421375162693.00,-5.5857844,-7.8727283,3.0253587
1421375162714.00,-2.6375153,-12.86829,4.2577457
1421375162733.00,0.4487668,-16.063097,1.3346246
1421375162802.00,2.8735743,-12.165052,-3.802842
1421375162803.00,0.16600479,-9.392518,-1.857637
1421375162803.00,-2.5288413,-8.297246,1.3506414
1421375162812.00,-3.5485208,-9.005573,0.8837622
1421375162832.00,-3.1928604,-9.10302,-0.104033664
1421375162852.00,-3.06323,-8.801547,-0.9942325
1421375162872.00,-2.987188,-8.322094,-0.39323226
1421375162893.00,-2.802173,-8.419392,0.53289187
1421375162920.00,-2.9571006,-8.876541,0.95381653
1421375162934.00,-3.035388,-8.859327,0.9675879
1421375162954.00,-2.8132498,-8.730445,0.6276448
1421375162972.00,-2.4692652,-9.012309,0.49996033
1421375162992.00,-2.4417224,-9.630822,0.29264146
1421375163012.00,-2.6411078,-9.682316,-0.17678238
1421375163034.00,-2.3773563,-9.856104,-0.5442682
1421375163053.00,-1.8381774,-10.181677,-0.09116043
1421375163074.00,-0.9298663,-10.114616,0.7879614
1421375163093.00,-0.5825885,-11.009456,1.0490185
1421375163156.00,-1.2296928,-11.803854,1.0852432
1421375163157.00,-1.7687219,-11.977792,0.5096901
1421375163158.00,-1.3783337,-13.000765,0.013322297
1421375163172.00,-0.9732761,-13.973742,-0.7098239
1421375163192.00,-0.6207591,-14.168786,-1.6100519
1421375163212.00,-0.7969428,-13.651462,-1.6952248
1421375163233.00,-2.5683591,-12.105626,-2.5662634
1421375163256.00,-2.991529,-10.570418,-1.3958473
1421375163273.00,-3.7961059,-9.447304,2.0218456
1421375163294.00,-5.31365,-9.308991,4.854854
1421375163314.00,-6.1896286,-10.966046,2.5532405
1421375163334.00,-5.5871315,-11.397748,-1.6771125
1421375163354.00,-3.825894,-11.4239435,-3.0335915
1421375163382.00,-2.8858488,-12.37791,0.33156052
1421375163395.00,-3.6576438,-11.215877,3.1933095
1421375163453.00,-4.17886,-8.943003,0.9991722
1421375163454.00,-4.0525227,-6.8672695,0.60070086
1421375163455.00,-3.9233413,-5.7630157,0.703537
1421375163474.00,-3.8419106,-4.9316444,0.41583526
1421375163492.00,-3.6974611,-4.2616377,0.21076173
1421375163512.00,-3.1855257,-3.7714074,0.33530274
1421375163532.00,-2.8252249,-3.7988005,0.4963678
1421375163552.00,-2.3734643,-3.4129028,0.3411406
1421375163573.00,-2.5767417,-3.7344341,-0.04655319
1421375163593.00,-2.8277695,-4.464616,-0.9104068
1421375163614.00,-2.8615992,-5.775739,-2.12064
1421375163634.00,-2.127376,-10.265503,-4.8653326
1421375163654.00,-0.52376086,-17.758171,-10.6906185
1421375163674.00,1.5076648,-18.656004,-11.154953
1421375163695.00,-0.2532733,-11.433225,-7.6934013
1421375163714.00,-1.6503181,-8.167615,-4.4036922
1421375163802.00,-4.412524,-7.47785,-1.5688875
1421375163803.00,-5.4678297,-6.00626,-0.893492
1421375163804.00,-7.2253246,-8.987909,-0.3118016
1421375163810.00,-5.143454,-12.450359,-1.7754579
1421375163812.00,-4.142785,-14.599441,-2.2948778
1421375163833.00,-3.8279896,-11.201507,0.95381653
1421375163852.00,-3.7880228,-5.73697,4.618346
1421375163872.00,-4.483177,-3.9487884,5.6401215
1421375163892.00,-5.498815,-4.915029,4.372707
1421375163912.00,-5.084477,-8.728499,4.4300375
1421375163932.00,-3.302133,-12.2135515,5.214107
1421375163952.00,-0.66970736,-13.238919,0.8614586
1421375163972.00,1.0641371,-11.688744,-3.4181418
1421375163992.00,-1.3712983,-9.198072,-1.0867401
1421375164015.00,-3.2269895,-7.8245287,1.6386424
1421375164034.00,-3.7770956,-8.380772,1.8561401
1421375164054.00,-2.7620564,-8.926987,0.98225737
1421375164143.00,-1.4223422,-9.317374,0.47451323
1421375164144.00,-1.0508149,-9.323811,0.18262024
1421375164145.00,-1.3807287,-8.960965,0.24444169
1421375164146.00,-2.1354592,-8.665031,0.67210233
1421375164153.00,-2.5218058,-8.847951,0.8418494
1421375164172.00,-2.8734248,-9.058263,0.6084846
1421375164192.00,-2.8945308,-9.586964,0.36284545
1421375164212.00,-2.7226882,-9.886042,-0.3742218
1421375164232.00,-1.9353255,-9.946965,-1.4010864
1421375164252.00,-0.9939331,-10.6994505,-1.6049625
1421375164272.00,-0.2561174,-10.714419,0.24324417
1421375164292.00,-0.18411712,-11.247162,0.37212616
1421375164316.00,-0.49472123,-12.079281,-0.27931917
1421375164334.00,-1.4016852,-12.284354,-1.4521303
1421375164354.00,-1.7441729,-12.831916,-2.1035757
1421375164421.00,-1.95239,-14.491365,-2.793491
1421375164422.00,-1.4006374,-14.6000395,-2.0323238
1421375164423.00,-2.3670278,-13.76283,-1.2587324
1421375164432.00,-5.0876203,-11.905941,-0.30162278
1421375164452.00,-6.428981,-10.566078,3.4164953
1421375164472.00,-7.7616596,-11.254646,3.629652
1421375164492.00,-7.573351,-10.838961,1.9239491
1421375164512.00,-5.906717,-10.759476,-1.1347902
1421375164534.00,-3.6721637,-11.163935,-2.56791
1421375164554.00,-2.8753707,-10.581645,-0.21689896
1421375164575.00,-3.4227822,-9.102721,2.0672011
1421375164593.00,-3.7256026,-7.028634,2.3363416
1421375164612.00,-3.7555404,-5.4510646,1.421444
1421375164632.00,-3.2177088,-4.6886997,1.133443
1421375164653.00,-3.2105236,-4.3983035,0.9595047
1421375164672.00,-3.2201037,-4.177812,0.9758208
1421375164737.00,-3.1028974,-3.6428246,0.67449737
1421375164738.00,-2.989583,-3.2184572,0.48499146
1421375164739.00,-2.8125014,-3.453169,0.51013917
1421375164752.00,-2.464026,-4.1489224,0.3025209
1421375164772.00,-2.6026378,-5.662575,-0.99019086
1421375164792.00,-2.3348446,-10.092912,-5.694159
1421375164813.00,-0.79484713,-17.526005,-14.218632
1421375164833.00,0.7231462,-18.669626,-13.214371
1421375164852.00,-0.81415695,-11.092383,-8.711734
1421375164875.00,-3.14017,-8.286169,-4.425547
1421375164893.00,-6.0435324,-7.201075,-1.4891034
1421375164915.00,-6.8129325,-4.918322,-0.6692583
1421375164934.00,-7.645501,-6.7223706,-1.49554
1421375164954.00,-8.131241,-10.941197,0.520318
1421375164974.00,-6.9442096,-17.39802,-3.7534447
1421375164995.00,-0.76910067,-13.343252,3.8371208
1421375165014.00,-1.0885364,-5.6232066,5.161716
1421375165070.00,-3.6574943,-3.4651442,5.533842
1421375165071.00,-4.8520103,-5.3630476,4.753814
1421375165076.00,-4.4423122,-10.324929,5.160968
1421375165092.00,-3.0729597,-13.356276,5.231621
1421375165112.00,0.16091537,-13.0175295,-1.1481125
1421375165132.00,-8.98E-04,-10.304871,-4.2876835
1421375165155.00,-2.6086254,-8.33377,0.01751358
1421375165174.00,-3.6703675,-7.7188487,1.6220269
1421375165195.00,-3.2961457,-8.312514,1.6714243
1421375165214.00,-2.3517594,-8.892558,0.8184979
1421375165235.00,-1.5552658,-9.297615,-0.47451323
1421375165255.00,-1.1210189,-9.320218,-0.32841706
1421375165274.00,-1.4203963,-9.275761,-0.035775606
1421375165294.00,-1.9693048,-9.191486,0.05852829
1421375165314.00,-2.552941,-8.99719,0.1526825
1421375165334.00,-3.0044024,-9.046738,0.14759308
1421375165413.00,-2.6797276,-9.462124,-0.20088226
1421375165414.00,-1.9443069,-10.0501,-0.85367477
1421375165415.00,-1.223406,-10.7242985,-0.7934999
1421375165416.00,-1.0662328,-10.431956,0.06346802
1421375165432.00,-1.5673906,-10.841655,0.37781432
1421375165452.00,-1.798959,-11.663445,-1.0193802
1421375165472.00,-1.6319064,-12.143647,-2.2306614
1421375165493.00,-1.2030482,-13.179643,-2.230811
1421375165515.00,-1.3236973,-14.971416,-2.8615992
1421375165538.00,-0.9963281,-14.47445,-2.74589
1421375165554.00,-0.94902647,-14.170732,-1.1618838
1421375165576.00,-4.194278,-12.706327,0.28485763
1421375165664.00,-5.666317,-10.875784,2.9576995
1421375165665.00,-7.296128,-11.270513,4.0724316
1421375165666.00,-8.029452,-10.831177,2.9692254
1421375165667.00,-7.11216,-10.038724,-0.3239264
1421375165673.00,-3.945645,-11.23309,-3.7178187
1421375165713.00,-3.156486,-10.301428,-1.7881814
1421375165714.00,-2.537673,-10.046658,3.263214
1421375165735.00,-3.259472,-7.719148,2.8416908
1421375165806.00,-3.5446289,-6.177055,1.2841796
1421375165807.00,-3.359464,-5.2054253,1.547033
1421375165808.00,-3.432512,-4.5827203,1.1638298
1421375165817.00,-3.5326538,-4.070635,0.97058165
1421375165832.00,-3.4178426,-3.7714074,0.8692424
1421375165852.00,-3.1217582,-3.4188905,0.6962022
1421375165873.00,-2.7238855,-3.4458344,0.8225395
1421375165893.00,-2.5578809,-4.762197,0.37990996
1421375165913.00,-2.4180715,-5.74176,-0.9571097
1421375165932.00,-2.5656648,-8.931327,-4.8216233
1421375165955.00,-2.9211755,-15.055692,-11.164534
1421375165974.00,-0.3161426,-18.93218,-14.126723
1421375165995.00,-0.18082398,-13.239069,-10.106533
1421375166052.00,-1.3624667,-9.282646,-3.9802232
1421375166053.00,-2.7918444,-8.295749,-1.6929795
1421375166053.00,-3.937412,-6.7457223,-0.569865
1421375166073.00,-4.4614725,-4.619244,-1.5346087
1421375166092.00,-5.705086,-6.5217876,-0.31644195
1421375166113.00,-8.157886,-10.696906,1.0759625
1421375166132.00,-8.723559,-17.241146,-5.5212684
1421375166152.00,-2.2162912,-14.791341,4.336632
1421375166175.00,-1.8018031,-6.9644175,3.6161802
1421375166197.00,-2.6246421,-3.5190322,4.1496706
1421375166212.00,-4.3354344,-4.139492,5.0455575
1421375166233.00,-4.7639933,-9.512568,5.935457
1421375166253.00,-3.753295,-12.744647,5.6006036
1421375166272.00,-0.36479142,-13.168117,-2.1227357
1421375166292.00,-0.11061996,-10.406959,-2.78915
1421375166315.00,-2.1279747,-8.376731,0.3571573
1421375166386.00,-3.898493,-7.648794,1.531615
1421375166386.00,-4.187991,-8.039332,0.9012758
1421375166387.00,-3.1645691,-8.685538,-0.14265335
1421375166396.00,-2.085613,-9.385034,-0.50609756
1421375166413.00,-1.3567786,-9.190438,-0.12528946
1421375166433.00,-1.4986835,-8.93941,0.4393364
1421375166452.00,-1.7178278,-9.129515,0.6093828
1421375166475.00,-2.0242405,-9.2818985,0.26045838
1421375166494.00,-2.188898,-9.377549,-0.276026
1421375166514.00,-1.9182609,-9.499097,-0.7807764
1421375166539.00,-1.267564,-10.06956,-1.219065
1421375166553.00,-0.60429335,-10.606494,-0.20896545
1421375166573.00,-0.7021898,-11.097174,1.1870315
1421375166593.00,-1.147364,-11.598182,1.0216255
1421375166613.00,-2.4209156,-11.609558,-1.5681391
1421375166636.00,-2.7187963,-11.6136,-2.8325596
1421375166655.00,-2.7018814,-12.877421,-2.9729676
1421375166727.00,-2.3234682,-14.374758,-3.2799792
1421375166728.00,-0.75143737,-13.651611,-2.6984386
1421375166730.00,-0.8349637,-14.161601,-1.6106507
1421375166740.00,-4.177064,-12.361444,0.57794815
1421375166753.00,-6.106252,-11.2092905,3.8294866
1421375166772.00,-7.0944967,-11.166479,3.8833745
1421375166793.00,-7.661817,-11.1690235,2.1149518
1421375166816.00,-6.8493066,-10.953472,-0.47301635
1421375166836.00,-3.6498601,-11.288027,-3.3696427
1421375166862.00,-2.6902056,-9.783056,0.09145981
1421375166874.00,-2.432292,-9.955797,2.1854553
1421375166896.00,-3.0777497,-7.906558,1.8624271
1421375166915.00,-3.1581326,-5.9915905,1.8378781
1421375166935.00,-3.2903078,-4.968917,1.6519647
1421375166954.00,-3.3656013,-4.199966,1.3904586
1421375166975.00,-3.3861086,-3.6022592,0.8478369
1421375167034.00,-3.332969,-3.3877552,0.7098239
1421375167035.00,-3.328628,-3.0469139,0.48484176
1421375167035.00,-3.0696666,-2.9313543,0.40026763
1421375167053.00,-3.0005105,-3.8546343,0.010927277
1421375167073.00,-3.1193633,-5.3841534,-1.4906002
1421375167093.00,-2.576592,-10.488239,-5.013225
1421375167116.00,-1.9058368,-17.704882,-12.319531
1421375167133.00,0.068108365,-18.693876,-14.308445
1421375167153.00,-0.5721103,-10.989247,-9.108559
1421375167173.00,-2.4129822,-8.780441,-3.9805224
1421375167192.00,-5.604346,-8.548274,-1.5172448
1421375167214.00,-6.990613,-7.655231,-0.45969406
1421375167233.00,-7.750433,-8.7038,-1.332529
1421375167253.00,-5.7392154,-13.341906,-3.632496
1421375167272.00,-4.251609,-12.860506,-1.8395247
1421375167294.00,-3.549419,-6.8287992,4.2281075
1421375167314.00,-3.3447945,-4.1152425,5.8718395
1421375167403.00,-5.080585,-4.5307784,5.4298086
1421375167403.00,-5.018614,-6.660699,5.6303916
1421375167404.00,-3.2302825,-11.338322,5.5295014
1421375167405.00,-0.57764876,-13.96476,1.4018348
1421375167414.00,0.8393047,-12.675042,-2.1400995
1421375167433.00,-1.4073733,-9.692195,-0.14100677
1421375167452.00,-3.6095939,-7.806566,1.3350737
1421375167479.00,-4.3941126,-7.920629,1.5295193
1421375167502.00,-4.355193,-8.561746,1.3798306
1421375167514.00,-3.355123,-9.11754,0.5763016
1421375167533.00,-1.7848883,-9.325907,-0.29428804
1421375167553.00,-1.1835887,-9.191337,-0.4513115
1421375167573.00,-1.303639,-9.017847,0.049996033
1421375167595.00,-1.7046552,-8.867709,0.70144135
1421375167619.00,-2.088906,-8.770262,1.0376422
1421375167676.00,-2.1016297,-8.979078,1.049767
1421375167677.00,-2.1652474,-9.448651,0.44906616
1421375167678.00,-2.138004,-9.845925,-0.43739045
1421375167693.00,-1.4934443,-10.891052,-1.3536351
1421375167712.00,-0.6848259,-10.943144,-0.70518357
1421375167733.00,-0.73033124,-11.505823,0.49816406
1421375167753.00,-1.6530125,-11.968661,-0.007185059
1421375167775.00,-2.6128166,-11.645034,-1.7968634
1421375167796.00,-2.3084993,-12.064312,-2.3376887
1421375167814.00,-2.1505778,-13.694721,-2.8677366
1421375167836.00,-1.7835411,-14.260245,-3.1482532
1421375167855.00,-0.75622743,-13.900394,-2.9234207
1421375167876.00,-2.6285338,-13.895155,-0.34173936
1421375167895.00,-5.1278863,-11.614647,2.460134
1421375167916.00,-6.331683,-11.557915,3.3268318
1421375167935.00,-7.7390566,-11.646082,2.3571482
1421375168007.00,-7.581584,-10.807975,0.36748582
1421375168008.00,-5.261409,-11.3467045,-2.1636007
1421375168009.00,-3.9661524,-10.393936,-0.8089178
1421375168017.00,-3.1731014,-10.188862,1.664838
1421375168033.00,-2.7267296,-8.931327,1.9722986
1421375168053.00,-3.0436208,-6.3863196,1.5396981
1421375168073.00,-2.858456,-4.8608418,2.1667442
1421375168095.00,-2.8072622,-3.8785844,1.6828007
1421375168115.00,-2.7777736,-3.2930021,1.4549744
1421375168134.00,-3.0084438,-3.2686028,1.0428814
1421375168154.00,-3.1802866,-3.1798375,1.1298505
1421375168174.00,-2.9996123,-2.625091,0.75622743
1421375168195.00,-2.9937744,-3.1951058,0.17109421
1421375168214.00,-2.8168423,-4.2791514,-0.762664
1421375168234.00,-2.615062,-8.61713,-4.676874
1421375168254.00,-2.2161415,-17.039217,-13.091327
1421375168274.00,-0.53334093,-19.235449,-15.270046
1421375168351.00,-1.3903089,-11.543096,-9.30974
1421375168352.00,-3.3900003,-7.697443,-4.647685
1421375168353.00,-6.155649,-7.033424,-2.3254142
1421375168354.00,-6.9609747,-5.487888,-1.4676979
1421375168373.00,-7.5009017,-6.92475,-2.4927664
1421375168393.00,-6.2858787,-11.224559,-2.425107
1421375168413.00,-6.00611,-12.078233,-0.5625302
1421375168433.00,-4.592001,-9.667497,3.773503
1421375168455.00,-3.0907726,-6.3545856,4.878954
1421375168474.00,-3.538791,-5.5076466,5.289251
1421375168495.00,-3.608546,-7.404802,5.5756054
1421375168515.00,-2.3234682,-10.642419,5.4874387
1421375168535.00,-0.92807007,-13.158687,2.5602758
1421375168555.00,0.33784744,-12.262949,-0.6740483
1421375168575.00,-1.4727874,-9.667646,0.060474243
1421375168594.00,-3.4055681,-7.669451,1.0041119
1421375168616.00,-4.011059,-8.02137,0.8866063
1421375168686.00,-4.1272173,-8.465496,0.8957373
1421375168688.00,-3.0270052,-8.557554,0.77299255
1421375168689.00,-2.0233424,-8.837322,0.4896318
1421375168705.00,-1.8796413,-8.731044,0.40595582
1421375168713.00,-1.8229092,-8.674312,0.6279442
1421375168733.00,-1.6917819,-9.023386,0.73048097
1421375168753.00,-1.8360819,-9.673484,0.018112335
1421375168776.00,-1.9779868,-9.953252,-0.497715
1421375168793.00,-1.8941611,-10.114766,-1.043031
1421375168814.00,-1.4326707,-10.485994,-1.7777033
1421375168833.00,-1.3482463,-10.504705,-1.1030562
1421375168854.00,-1.7688717,-10.644963,0.8879535
1421375168873.00,-1.6024177,-11.543245,1.0386901
1421375168892.00,-1.6277151,-12.274176,-0.82598233
1421375168915.00,-2.0959415,-12.713063,-1.2699591
1421375168935.00,-2.2360501,-14.106665,-1.4635066
1421375168996.00,-1.69268,-15.081288,-2.2007236
1421375168997.00,-1.0102491,-14.359639,-2.3267615
1421375168998.00,-2.2330563,-13.067825,-1.6118481
1421375169013.00,-4.964277,-10.726544,1.8030007
1421375169033.00,-6.5759754,-10.041269,4.4069858
1421375169053.00,-7.339537,-10.933563,2.552043
1421375169073.00,-8.453521,-11.231594,-0.60010207
1421375169095.00,-6.613248,-12.205768,-3.2187567
1421375169123.00,-3.714376,-11.094479,0.17289047
1421375169133.00,-3.0888267,-10.480755,2.9499156
1421375169153.00,-2.9312046,-9.455687,1.9785855
1421375169173.00,-2.8671377,-7.024293,2.0121157
1421375169195.00,-2.7336154,-5.4965696,2.0968397
1421375169213.00,-2.8845017,-3.9585183,1.9559826
1421375169233.00,-3.520529,-3.1989977,1.6937279
1421375169253.00,-3.6473153,-2.689158,1.3292358
1421375169273.00,-3.3446448,-2.223177,1.1581416
1421375169344.00,-3.182981,-1.3486954,0.9900412
1421375169344.00,-3.4612522,-1.4826667,0.5141808
1421375169345.00,-3.5817518,-3.1922617,-0.46927413
1421375169354.00,-3.4350567,-9.049432,-4.5089235
1421375169373.00,-2.7590625,-17.44637,-13.5152445
1421375169393.00,-0.13367203,-19.019897,-15.751744
1421375169413.00,-1.2578343,-10.631342,-10.093511
1421375169436.00,-2.7800188,-7.762408,-3.7986507
1421375169454.00,-5.370083,-7.1807175,-1.26951
1421375169473.00,-6.6397424,-6.2992005,-1.5536193
1421375169493.00,-8.143066,-9.909543,-1.9496956
1421375169513.00,-8.356972,-14.371465,2.5161178
1421375169537.00,-3.595972,-8.8774395,3.638334
1421375169555.00,-1.3009447,-4.8771577,4.397855
1421375169577.00,-3.4295182,-5.10199,4.736151
1421375169657.00,-4.738097,-7.610025,6.441405
1421375169657.00,-3.6980598,-11.2639265,6.430328
1421375169658.00,-1.18778,-13.658796,4.1863446
1421375169659.00,1.0505154,-12.910802,-2.0989351
1421375169677.00,-0.4951703,-10.075099,-0.15073654
1421375169693.00,-3.0249097,-8.1038475,0.28605515
1421375169713.00,-4.5134144,-7.405999,0.26315278
1421375169735.00,-4.3575883,-7.4308476,1.7386345
1421375169753.00,-3.4602044,-8.239915,0.9054671
1421375169775.00,-2.7551706,-8.012388,-0.051941987
1421375169795.00,-2.3064039,-8.18453,0.475112
1421375169813.00,-2.6478438,-8.961714,0.54636383
1421375169834.00,-2.8490255,-9.437724,-0.74260575
1421375169853.00,-2.9792547,-9.951905,-0.05718109
1421375169876.00,-2.5502467,-10.005643,0.7605684
1421375169893.00,-1.8293458,-9.919422,-0.003442841
1421375169967.00,-0.9701326,-10.950628,-1.8061441
1421375169968.00,-1.355132,-11.593391,-0.85906357
1421375169969.00,-1.085393,-11.5944395,0.8015831
1421375169977.00,-0.87298465,-12.73372,0.16211289
1421375169993.00,-1.3076806,-13.23862,-1.730701
1421375170021.00,-2.698289,-13.537698,-2.5719516
1421375170033.00,-3.2148647,-14.423556,-2.4210653
1421375170053.00,-2.2492228,-14.246474,-2.2281165
1421375170073.00,-3.7685633,-13.538746,0.15627502
1421375170096.00,-5.4693265,-10.928474,4.209546
1421375170113.00,-6.3815293,-11.727063,4.8042593
1421375170133.00,-6.871461,-12.145593,1.8974543
1421375170153.00,-7.2368507,-11.753109,-1.5155983
1421375170173.00,-5.861361,-11.220667,-2.5888665
1421375170193.00,-4.064049,-10.403965,-0.32602203
1421375170213.00,-3.6145334,-9.296718,2.5822802
1421375170295.00,-3.5019677,-8.074359,4.249513
1421375170296.00,-3.6649787,-5.635481,1.841321
1421375170297.00,-3.41904,-4.8714695,1.2707076
1421375170298.00,-3.2780333,-4.113446,1.7205222
1421375170313.00,-3.3250356,-3.4045203,1.7137861
1421375170334.00,-3.2533348,-3.0195208,1.4088702
1421375170353.00,-2.8382478,-2.2959256,1.7179774
1421375170375.00,-2.4324417,-2.4207659,2.0342698
1421375170396.00,-1.9898121,-3.7473075,1.6531622
1421375170413.00,-1.8305434,-6.3929057,-1.0868897
1421375170433.00,-1.8655705,-11.9498005,-7.316186
1421375170454.00,-2.737657,-18.204992,-14.481036
1421375170474.00,-1.2470567,-16.587606,-13.156141
1421375170495.00,-1.214724,-10.341694,-6.6422873
1421375170513.00,-1.979783,-7.883955,-2.1387525
1421375170533.00,-3.136727,-8.211474,-2.0103195
1421375170554.00,-4.1088057,-6.738088,-1.6669335
1421375170573.00,-7.1805677,-9.726624,-3.7077897
1421375170644.00,-7.303762,-14.991775,-4.0800653
1421375170644.00,-6.681206,-14.32536,-3.0994546
1421375170645.00,-4.400998,-7.6077795,4.3617797
1421375170655.00,-3.5447786,-2.9591963,5.7223005
1421375170674.00,-4.233197,-3.4212854,5.872139
1421375170694.00,-4.9585886,-6.135142,5.6203623
1421375170713.00,-3.9450462,-9.664352,5.9320145
1421375170738.00,-2.5709038,-14.02254,4.7988706
1421375170754.00,-0.09580078,-14.70048,-1.6482224
1421375170775.00,-0.20402573,-10.570868,-1.6721727
1421375170793.00,-2.2968237,-8.244256,-0.038320314
1421375170813.00,-3.9005888,-7.938143,0.25941056
1421375170834.00,-4.440516,-7.6794806,1.5486795
1421375170858.00,-3.5425332,-7.967332,2.1233344
1421375170875.00,-2.877167,-8.033644,0.94962525
1421375170897.00,-1.8284477,-8.311017,0.12513977
1421375170958.00,-1.7803977,-8.948242,-0.11121872
1421375170960.00,-2.2210813,-9.329799,-0.9644444
1421375170961.00,-2.579885,-9.267529,-1.3346246
1421375170973.00,-2.906955,-9.357342,-0.27422974
1421375170993.00,-2.9259653,-9.426647,0.6144722
1421375171013.00,-1.8121316,-10.057137,-0.44218048
1421375171033.00,-1.1376343,-11.389067,-0.73302567
1421375171061.00,-1.5465839,-11.232791,0.66342044
1421375171073.00,-2.1119583,-11.421249,1.3962964
1421375171093.00,-2.294728,-12.394675,-0.16001724
1421375171113.00,-2.2070105,-12.820539,-2.201921
1421375171134.00,-2.0459454,-14.606476,-1.7962646
1421375171158.00,-1.8977536,-15.603402,-0.9542656
1421375171175.00,-1.9502944,-15.2119665,-0.603994
1421375171194.00,-4.353846,-12.891492,-0.86160827
1421375171217.00,-5.464686,-10.51189,1.4205459
1421375171235.00,-6.334976,-10.403366,3.6618352
1421375171256.00,-7.214098,-11.428584,3.0320947
1421375171345.00,-7.162306,-11.851754,0.7620653
1421375171346.00,-4.9038024,-11.375444,-2.934797
1421375171347.00,-3.1018496,-11.362721,-0.8599617
1421375171347.00,-3.6908748,-10.259665,3.885919
1421375171356.00,-4.0598574,-8.063132,4.2330475
1421375171373.00,-3.74132,-5.735922,1.0466236
1421375171393.00,-3.3391063,-4.7095065,1.1213182
1421375171414.00,-3.0494585,-3.9276824,1.8718574
1421375171434.00,-2.9244685,-3.0174253,1.5736775
1421375171453.00,-2.4466622,-2.773283,1.2359798
1421375171475.00,-2.292782,-2.4037015,1.3207036
1421375171496.00,-2.222578,-2.5873694,1.7769548
1421375171515.00,-2.0001407,-3.8118234,1.4626085
1421375171535.00,-1.9487975,-6.165529,-0.608784
1421375171555.00,-1.8043479,-10.335407,-7.0639606
1421375171634.00,-2.5186625,-17.757723,-15.540084
1421375171635.00,-0.8881032,-18.821411,-14.596297
1421375171636.00,-0.89678514,-11.282937,-7.666158
1421375171637.00,-1.133892,-8.33347,-2.4810905
1421375171653.00,-2.9418325,-8.330776,-0.9357042
1421375171673.00,-3.6679723,-6.1415787,-0.84484315
1421375171694.00,-5.223687,-7.692653,-4.6596603
1421375171713.00,-5.400769,-10.485695,-1.5009288
1421375171735.00,-9.305848,-11.095227,-1.816772
1421375171756.00,-6.9171157,-10.918145,3.9640567
1421375171775.00,-3.9968386,-6.991062,4.998705
1421375171795.00,-3.8121226,-5.32338,4.9211664
1421375171815.00,-4.188141,-6.4267354,4.7946796
1421375171835.00,-3.547024,-8.94465,4.2930727
1421375171855.00,-2.4797432,-12.436738,3.2947984
1421375171876.00,-0.5002597,-13.577216,0.29503646
1421375171956.00,-0.2201921,-10.842553,-0.43709105
1421375171957.00,-2.3128405,-8.792416,-0.42541534
1421375171958.00,-3.4611025,-8.013436,-0.21330643
1421375171959.00,-3.9996827,-7.692653,1.2522959
1421375171974.00,-3.6058517,-7.587871,1.6838484
1421375171994.00,-2.9431796,-8.251591,0.6848259
1421375172013.00,-2.015409,-8.579409,0.026045837
1421375172033.00,-1.6739689,-9.033265,0.14444962
1421375172054.00,-1.7658778,-9.243728,0.1434018
1421375172073.00,-1.9714005,-9.028325,0.20417541
1421375172094.00,-2.4484584,-9.177864,-0.035775606
1421375172114.00,-2.7608588,-9.545949,-0.4643344
1421375172139.00,-2.3074517,-9.740544,-0.46613067
1421375172155.00,-1.9944525,-10.648108,0.11705658
1421375172177.00,-1.9860699,-10.855875,0.9939331
1421375172196.00,-2.5240512,-11.572435,0.5670209
1421375172266.00,-2.8668385,-11.775562,-0.011226654
1421375172267.00,-3.1488519,-11.277698,-0.2215393
1421375172268.00,-2.6855652,-12.171041,-1.8256036
1421375172276.00,-2.4372318,-15.091916,-2.3315516
1421375172294.00,-1.7163309,-14.914086,-1.9597248
1421375172314.00,-1.2097843,-15.305672,-1.5992743
1421375172334.00,-3.1530433,-13.2089815,0.29413834
1421375172359.00,-4.782255,-10.637928,2.2487736
1421375172388.00,-4.473148,-10.306218,4.3556423
1421375172396.00,-5.753735,-10.8539295,3.006947
1421375172413.00,-6.992559,-11.311976,0.3876938
1421375172433.00,-4.7282176,-11.579321,-2.5848248
1421375172453.00,-3.524421,-12.225078,-1.2063414
1421375172475.00,-3.9905517,-11.047776,4.0707846
1421375172497.00,-4.960235,-8.904084,4.0218368
1421375172515.00,-4.8788047,-5.7139177,-0.005388794
1421375172605.00,-4.0460863,-4.5476933,0.44966492
1421375172611.00,-3.2927027,-3.905229,1.1930192
1421375172611.00,-2.319277,-3.5935771,1.051713
1421375172612.00,-2.223177,-3.1398706,1.001717
1421375172613.00,-2.246229,-2.4475603,1.3471985
1421375172633.00,-1.8516495,-2.4733067,1.5766712
1421375172654.00,-1.8673668,-2.700235,0.8957373
1421375172673.00,-2.1406984,-4.123475,-1.14931
1421375172694.00,-1.9173628,-8.706196,-5.350623
1421375172714.00,-1.9941531,-16.760347,-13.740376
1421375172736.00,0.368833,-19.19743,-12.009526
1421375172753.00,-1.1590397,-13.050462,-6.310128
1421375172774.00,-3.324736,-8.336164,-2.765499
1421375172795.00,-4.056714,-6.1126885,-1.7549505
1421375172817.00,-3.638334,-4.8633866,-2.0291803
1421375172835.00,-4.13066,-5.3004775,-2.0603156
1421375172909.00,-6.7777557,-9.274264,0.5680687
1421375172911.00,-9.859247,-15.61882,-2.8286676
1421375172913.00,-3.5663338,-17.53738,-2.0918999
1421375172914.00,-1.4468912,-7.8829074,4.763694
1421375172934.00,-2.4538472,-3.1948063,3.6750078
1421375172954.00,-3.7928128,-3.61139,4.1064105
1421375172974.00,-4.661756,-6.4473925,4.0314164
1421375172998.00,-5.094506,-10.360555,3.8655615
1421375173014.00,-3.8987925,-12.835359,3.7902682
1421375173038.00,-1.6099021,-12.643907,0.07185058
1421375173059.00,-0.83556247,-9.66091,-2.4763005
1421375173073.00,-1.9925065,-8.708141,-0.9114546
1421375173094.00,-2.6177564,-8.664582,0.7399113
1421375173113.00,-3.1713052,-8.23752,0.99842376
1421375173134.00,-2.8500733,-8.342452,0.09400452
1421375173154.00,-2.6003923,-8.288264,-0.40266266
1421375173225.00,-2.7339149,-8.367749,0.036524046
1421375173226.00,-3.134482,-8.551268,0.572709
1421375173226.00,-3.182083,-9.196575,0.44442582
1421375173235.00,-3.1117291,-9.741592,-0.23336472
1421375173254.00,-2.7803183,-9.931248,-1.4462924
1421375173273.00,-2.0035834,-9.78126,-2.9705727
1421375173293.00,-1.5432907,-10.256072,-1.79851
1421375173313.00,-0.98165864,-10.015972,0.50130755
1421375173337.00,-0.8467891,-10.924133,2.648143
1421375173355.00,-1.9565812,-11.913425,1.5603552
1421375173380.00,-3.0373337,-12.234359,-1.2741504
1421375173395.00,-3.3087194,-13.028308,-1.6143929
1421375173416.00,-3.4028738,-15.081438,-1.4895525
1421375173435.00,-2.6611662,-15.834822,-1.4678476
1421375173455.00,-2.8960276,-14.048736,-1.5509248
1421375173475.00,-4.4969487,-12.014615,-1.9875668
1421375173495.00,-5.7468495,-10.639725,1.9053878
1421375173566.00,-7.1055737,-9.503288,3.0627809
1421375173567.00,-7.7896514,-9.823472,2.443369
1421375173568.00,-7.6814265,-10.692565,-0.5275031
1421375173576.00,-6.065237,-12.1467905,-3.2793806
1421375173594.00,-5.6233563,-11.285182,0.50609756
1421375173614.00,-5.297484,-9.177566,3.7305422
1421375173633.00,-4.8362927,-6.6225286,2.1576133
1421375173653.00,-3.2560291,-4.8428793,0.4245172
1421375173676.00,-2.319726,-4.2822948,0.321232
1421375173696.00,-1.9923569,-4.313879,0.77868074
1421375173716.00,-1.9938538,-3.7772453,1.2720548
1421375173733.00,-2.742896,-2.7719357,0.93884766
1421375173754.00,-2.9690757,-1.8468595,0.28785142
1421375173774.00,-2.2155428,-2.3430777,-0.21016297
1421375173794.00,-2.0378623,-3.1380744,-1.3019925
1421375173863.00,-2.2882915,-6.1496615,-4.285139
1421375173864.00,-2.450105,-13.352533,-12.06536
1421375173865.00,-2.1016297,-18.67322,-14.239589
1421375173879.00,-3.7384758,-15.186819,-7.6386156
1421375173894.00,-4.8240185,-8.143815,-2.730023
1421375173914.00,-3.3739839,-4.9994535,-0.9577084
1421375173934.00,-3.336412,-4.0055203,-4.2276587
1421375173954.00,-7.0660563,-6.6047153,1.4822177
1421375173974.00,-13.457465,-14.453794,-2.7903473
1421375173996.00,-6.9114275,-18.776505,-1.4843134
1421375174016.00,-0.35012192,-9.013058,6.5243325
1421375174034.00,-1.4497353,-3.3091686,5.957761
1421375174054.00,-3.8386176,-4.245621,5.942193
1421375174074.00,-4.628824,-6.9307375,4.891528
1421375174094.00,-4.512965,-10.7171135,3.9609132
1421375174118.00,-2.9922776,-13.790073,2.7219398
1421375174133.00,-0.9503737,-12.420272,-2.911296
1421375174154.00,-1.7193246,-8.919203,-2.5911117
1421375174205.00,-3.7086878,-8.03589,-0.026045837
1421375174206.00,-4.482728,-7.369924,0.8454419
1421375174214.00,-3.984115,-7.751181,1.0395882
1421375174234.00,-2.8642936,-8.187973,0.59980273
1421375174254.00,-1.3924044,-8.70874,0.66970736
1421375174274.00,-0.44487488,-9.423803,0.7696994
1421375174299.00,-1.3105247,-9.665999,-0.43619293
1421375174315.00,-2.77463,-9.162597,-1.0484198
1421375174335.00,-3.6396813,-8.773107,-0.106728055
1421375174354.00,-4.27511,-9.334739,0.55010605
1421375174374.00,-4.522845,-10.047556,0.26839188
1421375174394.00,-4.410279,-9.861493,-1.2913646
1421375174417.00,-3.184927,-10.166708,-2.7954369
1421375174436.00,-1.3810282,-10.5620365,-1.3105247
1421375174454.00,-0.36658767,-11.690839,0.81310916
1421375174547.00,-0.5638774,-13.158387,-0.09445358
1421375174548.00,-1.6314573,-13.153148,-2.1151016
1421375174549.00,-2.551594,-14.136303,-2.0805235
1421375174549.00,-2.9702733,-14.938036,-1.8854791
1421375174558.00,-2.6557772,-14.678626,-1.5390995
1421375174575.00,-4.9494576,-12.287049,0.2549199
1421375174594.00,-5.8098683,-10.714869,3.341202
1421375174614.00,-7.090605,-10.422227,3.5838473
1421375174636.00,-7.8733273,-10.936707,2.4502547
1421375174662.00,-6.7424293,-11.051369,-0.17154327
1421375174674.00,-4.62613,-11.890075,-2.6915529
1421375174694.00,-3.6148329,-11.947555,0.705932
1421375174714.00,-3.9588175,-9.631271,4.627627
1421375174734.00,-3.7944593,-6.98717,1.570085
1421375174754.00,-4.1854463,-5.1069303,0.49816406
1421375174776.00,-3.8245468,-4.1839495,1.0341994
1421375174796.00,-3.484903,-3.4967284,0.95725936
1421375174855.00,-3.3175511,-2.9144394,0.8532257
1421375174856.00,-3.1048434,-2.874323,0.83436495
1421375174857.00,-2.9422815,-2.7774742,0.97342575
1421375174874.00,-2.7502308,-2.993475,1.095422
1421375174894.00,-2.4243586,-4.347559,0.35940263
1421375174914.00,-2.208657,-5.91495,-1.2117302
1421375174934.00,-2.2459295,-9.7956295,-5.4148397
1421375174954.00,-1.7866845,-16.476837,-12.743151
1421375174974.00,-0.3980223,-18.556911,-12.021801
1421375174994.00,-1.0018666,-13.110786,-6.295758
1421375175014.00,-2.0645068,-9.5898075,-3.043022
1421375175034.00,-2.8005264,-9.02638,-2.4622297
1421375175054.00,-3.66917,-7.9442797,-2.8107052
1421375175076.00,-7.60748,-9.1621475,-4.517007
1421375175095.00,-9.503437,-10.857672,-1.4651532
1421375175116.00,-8.152646,-10.096654,-1.7318985
1421375175135.00,-4.1088057,-8.650063,3.5783088
1421375175229.00,-3.5865417,-6.546636,4.5512857
1421375175230.00,-4.307143,-6.8994527,4.4565325
1421375175231.00,-4.0776706,-7.048393,4.526587
1421375175233.00,-3.2732432,-7.9587994,4.052972
1421375175234.00,-2.4763005,-11.596086,2.9735665
1421375175254.00,-1.3699511,-13.314063,-0.33500335
1421375175275.00,-1.3144166,-10.894645,-0.6703061
1421375175294.00,-2.653532,-8.655151,0.20477417
1421375175315.00,-3.6151323,-8.476723,0.4805008
1421375175334.00,-4.0532713,-8.419691,0.6316864
1421375175354.00,-3.5669324,-8.215067,1.0469229
1421375175374.00,-2.9852421,-8.124206,0.66686326
1421375175397.00,-2.6479936,-8.461005,0.2854564
1421375175416.00,-2.069147,-8.645721,0.4843927
1421375175436.00,-2.5810826,-8.903186,0.6806346
1421375175458.00,-3.197351,-8.888067,0.122595064
1421375175526.00,-3.19301,-9.126671,-0.44427612
1421375175527.00,-3.1912138,-9.547596,-0.30087432
1421375175528.00,-3.1356792,-9.60328,0.14265335
1421375175537.00,-2.9376411,-9.425,-0.5198689
1421375175554.00,-2.2921834,-10.081236,-0.54606444
1421375175574.00,-2.2008734,-10.70918,0.7327263
1421375175597.00,-2.4584875,-11.572136,0.85846484
1421375175617.00,-3.2775843,-11.558064,0.6569838
1421375175636.00,-3.866759,-11.082803,-0.44891647
1421375175655.00,-3.786975,-11.374098,-1.4684464
1421375175674.00,-3.4164953,-13.134137,-1.4311738
1421375175694.00,-2.5421636,-14.076577,-1.4356645
1421375175717.00,-2.1709356,-13.949641,-2.1321661
1421375175734.00,-1.8872753,-13.748909,-1.9853215
1421375175754.00,-4.664001,-11.67078,-0.11735596
1421375175774.00,-5.410948,-9.941875,2.9148884
1421375175794.00,-5.8972864,-10.0745,3.369044
1421375175857.00,-6.759344,-10.346484,2.160158
1421375175858.00,-6.754554,-10.60829,0.43185195
1421375175859.00,-4.3334885,-12.273577,-1.3736933
1421375175874.00,-3.7856278,-11.164683,1.7522562
1421375175895.00,-4.2396336,-9.015003,3.9660027
1421375175914.00,-4.5566745,-7.0808754,1.359473
1421375175935.00,-4.607419,-5.341642,0.39083725
1421375175957.00,-3.9224432,-4.2343946,1.325793
1421375175976.00,-3.4618511,-3.4510734,0.6647676
1421375175997.00,-3.0087433,-3.1252012,0.4923262
1421375176016.00,-2.5355773,-3.2479458,0.83690965
1421375176036.00,-1.7709672,-3.2064822,0.9644444
1421375176056.00,-1.6598983,-3.7627254,0.58049285
1421375176077.00,-1.6781602,-5.1982403,-0.46014312
1421375176096.00,-2.0890558,-7.941885,-3.2727942
1421375176116.00,-2.010619,-13.50342,-8.903336
1421375176188.00,-0.72613996,-18.577118,-12.33944
1421375176189.00,-0.6306386,-15.467635,-8.76652
1421375176191.00,-1.5410454,-10.186317,-4.467909
1421375176198.00,-2.7431955,-7.961943,-2.4963589
1421375176214.00,-4.2328978,-6.536158,-1.2654685
1421375176234.00,-4.8349457,-4.799619,-1.22146
1421375176255.00,-5.976472,-7.8338094,-2.3656805
1421375176274.00,-7.075636,-12.313095,-0.67105454
1421375176296.00,-8.111482,-16.046482,-3.902834
1421375176317.00,-4.1585026,-10.849439,3.5307078
1421375176336.00,-3.1005025,-4.663253,4.562662
1421375176357.00,-3.9960902,-3.3453932,4.3243575
1421375176376.00,-4.6485834,-5.2937417,4.7607
1421375176396.00,-4.486021,-9.014255,5.0142727
1421375176417.00,-3.3900003,-13.383519,4.754413
1421375176436.00,-0.68752027,-14.478192,-0.4487668
