time_milisec,ax,ay,az
1421104321064.00,-0.4514612,2.4483087,9.482032
1421104321083.00,-0.5373825,2.5831783,9.589508
1421104321095.00,-0.75847274,2.6580226,9.86763
1421104321115.00,-0.76281375,2.4716601,9.829759
1421104321135.00,-0.62554914,2.5959017,9.688453
1421104321155.00,-0.58109164,2.6475444,9.69459
1421104321176.00,-0.5683681,2.6340723,9.584419
1421104321196.00,-0.7301816,2.711162,9.72797
1421104321215.00,-0.6503975,2.690505,9.767039
1421104321236.00,-0.47181883,2.6604176,9.591904
1421104321256.00,-0.35221756,2.6680517,9.5616665
1421104321276.00,-0.45699966,2.8036697,9.479637
1421104321306.00,-0.41388932,2.7755282,9.563313
1421104321316.00,-0.46942383,2.7210417,9.630524
1421104321336.00,-0.41598496,2.772684,9.577983
1421104321356.00,-0.34308654,2.704426,9.527088
1421104321376.00,-0.44637176,2.9807515,9.449849
1421104321396.00,-0.53528684,2.8946805,9.522597
1421104321416.00,-0.7240443,2.7246342,9.606573
1421104321438.00,-0.5354366,2.815046,9.71854
1421104321456.00,-0.57390654,2.793491,9.563014
1421104321475.00,-0.57929534,2.8346553,9.473649
1421104321495.00,-0.48139894,2.8707304,9.446556
1421104321516.00,-0.5264552,2.883304,9.575288
1421104321536.00,-0.43215135,2.8520193,9.684261
1421104321556.00,-0.53109556,2.8062143,9.441317
1421104321575.00,-0.46553192,2.802173,9.334439
1421104321596.00,-0.5560936,2.767445,9.282646
1421104321618.00,-0.64545774,2.8165429,9.354796
1421104321636.00,-0.628992,2.8120522,9.464069
1421104321655.00,-0.4778064,2.8635452,9.429641
1421104321675.00,-0.549657,2.8623476,9.744586
1421104321699.00,-0.5903723,2.8496242,9.897119
1421104321715.00,-0.72494245,2.7295737,9.698781
1421104321735.00,-0.56028485,2.8518696,9.562715
1421104321755.00,-0.5510042,2.873275,9.562415
1421104321775.00,-0.57660097,2.7945387,9.700578
1421104321795.00,-0.6066884,2.905009,9.625434
1421104321815.00,-0.5798941,2.8894415,9.507479
1421104321836.00,-0.5403763,2.836751,9.359587
1421104321855.00,-0.5737569,2.707869,9.525442
1421104321875.00,-0.64860123,2.799179,9.58382
1421104321895.00,-0.69889665,2.7298732,9.844278
1421104321915.00,-0.7563771,2.725083,9.721833
1421104321936.00,-0.50265473,2.5162673,9.748478
1421104321957.00,-0.74904233,2.895878,9.751322
1421104321977.00,-0.49307466,2.6553283,9.826466
1421104321997.00,-0.41942778,2.7496321,9.649833
1421104322017.00,-0.38365218,2.9020152,9.651031
1421104322037.00,-0.631387,2.7818153,9.731414
1421104322056.00,-0.7379654,2.6517358,9.705816
1421104322076.00,-0.74829394,2.6890082,9.854308
1421104322097.00,-0.6933582,2.688559,9.81464
1421104322116.00,-0.66940796,2.80352,9.60313
1421104322136.00,-0.69246,2.757416,9.489816
1421104322156.00,-0.6104306,2.6129663,9.426647
1421104322176.00,-0.7250922,2.757865,9.541159
1421104322197.00,-0.73152876,2.665956,9.647887
1421104322216.00,-0.5189708,2.6279352,9.702823
1421104322236.00,-0.60743684,2.6821225,9.684112
1421104322256.00,-0.80787003,2.6602678,9.749975
1421104322276.00,-0.68722093,2.6934988,9.74713
1421104322296.00,-0.7003935,2.535727,9.524095
1421104322317.00,-0.74919206,2.6653574,9.485774
1421104322337.00,-0.85502195,2.5447083,9.700129
1421104322355.00,-0.9038205,2.4730074,9.628278
1421104322376.00,-0.7391629,2.6909542,9.54535
1421104322396.00,-0.6971004,2.5051904,9.297615
1421104322416.00,-0.780477,2.6156607,9.507928
1421104322436.00,-0.7367679,2.7695408,9.72363
1421104322456.00,-0.5601352,2.4932153,9.684561
1421104322477.00,-0.62569886,2.5466542,9.676627
1421104322497.00,-0.7222481,2.5210574,9.653126
1421104322579.00,-0.81700104,2.5744963,9.645941
1421104322580.00,-0.8674461,2.530338,9.642199
1421104322581.00,-0.7020401,2.6146128,9.419013
1421104322584.00,-0.7143146,2.4692652,9.548643
1421104322595.00,-0.80307996,2.5650659,9.649982
1421104322642.00,-0.8339159,2.5756938,9.8833475
1421104322642.00,-0.8571176,2.6041346,9.8817005
1421104322691.00,-0.6471043,2.6690996,9.683363
1421104322692.00,-0.6572832,2.6791286,9.66061
1421104322697.00,-0.5930667,2.5216563,9.6582155
1421104322716.00,-0.7048842,2.5195606,9.763597
1421104322754.00,-0.5797444,2.7481353,9.825119
1421104322758.00,-0.53453845,2.5927584,9.72363
1421104322805.00,-0.4260141,2.5728498,9.605375
1421104322806.00,-0.71820647,2.6397605,9.41587
1421104322815.00,-0.97462326,2.6177564,9.785002
1421104322850.00,-0.6542894,2.5090823,9.881252
1421104322857.00,-0.5071454,2.459236,9.620194
1421104322902.00,-0.5601352,2.518363,9.31453
1421104322902.00,-0.65458876,2.450105,9.148226
1421104322915.00,-0.9937834,2.2059627,9.436377
1421104322963.00,-1.1952645,2.2773643,9.763147
1421104322963.00,-0.93360853,2.4830365,10.387948
1421104323026.00,-0.00239502,2.6725423,9.979747
1421104323026.00,0.4923262,3.8636155,10.151889
1421104323027.00,0.678539,4.1212296,8.974737
1421104323036.00,1.8278489,1.4929953,10.676548
1421104323071.00,3.4591568,3.9219942,8.534652
1421104323079.00,2.2430854,6.3098288,7.722441
1421104323121.00,0.1818718,4.7957273,7.00154
1421104323122.00,-2.0550764,5.503755,5.9929376
1421104323136.00,-3.06802,6.8608327,6.0044637
1421104323171.00,-1.1159294,5.253475,7.5564365
1421104323178.00,0.9331595,4.754563,10.303075
1421104323205.00,0.6538403,4.6985793,10.460248
1421104323272.00,-1.2540921,5.118007,8.599916
1421104323273.00,-2.060166,5.691165,7.8362045
1421104323274.00,-0.468376,5.545368,8.535999
1421104323284.00,-0.5108876,5.3780165,8.943152
1421104323352.00,-1.2774435,4.6660967,9.368717
1421104323353.00,-1.3850697,4.771927,8.495434
1421104323353.00,-0.9134006,5.270989,8.015831
1421104323361.00,-0.7566765,5.283862,7.7746825
1421104323398.00,-0.68662214,4.82327,8.071515
1421104323399.00,-1.499432,5.216652,9.373807
1421104323457.00,-1.2064911,4.810846,9.526639
1421104323458.00,-1.025218,5.2639537,8.678503
1421104323459.00,-1.0832973,5.8752823,8.339607
1421104323476.00,-1.7727635,5.5080957,8.66099
1421104323535.00,-2.0112176,5.521418,8.769962
1421104323537.00,-1.4756314,5.3775673,8.758138
1421104323539.00,-1.045426,5.702841,8.1126795
1421104323595.00,-1.6980689,5.944738,8.21342
1421104323595.00,-1.40902,6.0546093,7.373816
1421104323596.00,-1.2005036,5.70793,8.572523
1421104323635.00,-1.635499,5.71751,8.6876335
1421104323636.00,-1.533561,5.8356147,8.015082
1421104323674.00,-1.0994637,5.7312818,6.6815057
1421104323687.00,-1.495091,5.521568,7.43459
1421104323723.00,-1.9229013,5.1548305,9.509425
1421104323724.00,-1.087788,4.843777,9.844877
1421104323737.00,-1.767225,4.6339135,8.359067
1421104323756.00,-1.8848804,4.556974,7.9020677
1421104323778.00,-1.2942086,3.6962636,8.62701
1421104323796.00,-1.6786094,3.4519715,10.024803
1421104323817.00,-2.199526,4.0965314,11.122471
1421104323836.00,-2.100881,3.7883222,10.196496
1421104323856.00,-1.5188915,2.940036,10.020163
1421104323876.00,-1.4076728,3.1452594,8.964558
1421104323897.00,-1.7280066,4.0954833,8.553812
1421104323917.00,-1.9645147,5.1178575,8.220006
1421104323936.00,-1.6190332,4.450994,9.65642
1421104323956.00,-1.0991642,2.3230193,10.245744
1421104323976.00,-0.8937914,2.0390596,10.496173
1421104323997.00,-0.7048842,3.0085936,11.0299635
1421104324016.00,-0.5999524,3.8208046,11.750864
1421104324038.00,-0.07349716,2.7463388,10.317744
1421104324057.00,0.51807266,1.2223581,8.733588
1421104324077.00,-0.3237767,1.2888199,8.744515
1421104324096.00,-1.2593312,1.8940114,9.799222
1421104324117.00,-1.2969031,2.0320244,9.263935
1421104324138.00,-0.39877075,2.352957,8.769814
1421104324157.00,0.34054184,3.034789,9.048234
1421104324177.00,-0.09071136,2.9970675,9.238788
1421104324196.00,-0.38320312,2.0429516,10.275532
1421104324217.00,-0.23411316,1.830693,10.229129
1421104324237.00,-0.932411,2.08696,9.2554035
1421104324256.00,-0.803529,2.7830126,9.402248
1421104324277.00,-0.42391846,2.5867708,9.240584
1421104324297.00,-0.4447252,2.2373972,9.563762
1421104324316.00,-0.84364563,1.9941531,9.675131
1421104324337.00,-1.4395565,2.4243586,9.695638
1421104324357.00,-1.1385324,2.3555017,9.680519
1421104324377.00,-0.93854827,2.1865032,9.720187
1421104324396.00,-1.1079959,2.3432271,9.639954
1421104324417.00,-1.0870395,2.3447242,9.533375
1421104324441.00,-1.1259586,2.5363257,9.446257
1421104324457.00,-1.0106982,2.5842261,9.610465
1421104324477.00,-1.0559043,2.4716601,9.6582155
1421104324497.00,-1.0915302,2.7229874,9.586814
1421104324516.00,-0.8771759,2.310146,9.724827
1421104324537.00,-0.73751634,2.2079086,9.882449
1421104324562.00,-0.8479866,2.8502228,9.8094015
1421104324576.00,-0.8373587,2.636168,9.775123
1421104324597.00,-1.1837384,2.6711953,10.158924
1421104324618.00,-1.007405,2.5551865,9.760004
1421104324637.00,-0.658331,1.8284477,9.101823
1421104324681.00,-1.1624826,2.4170237,9.854458
1421104324681.00,-1.2590318,2.5277934,10.283765
1421104324733.00,-0.8352631,2.5855732,10.217303
1421104324740.00,-0.9635463,2.4915688,10.108629
1421104324744.00,-0.95187056,2.4132814,9.685908
1421104324763.00,-0.79170364,2.1290226,9.312734
1421104324783.00,-0.9099577,2.4084916,9.14628
1421104324796.00,-0.78466827,2.1835093,9.473799
1421104324815.00,-0.920885,2.3013144,10.003847
1421104324836.00,-1.0267149,2.2489233,10.1575775
1421104324856.00,-0.997825,2.3258634,9.629326
1421104324876.00,-0.8111632,2.3117926,9.623487
1421104324920.00,-0.9780661,2.381847,9.390123
1421104324920.00,-0.8095166,2.5716522,9.284143
1421104324943.00,-0.7873627,2.4816892,9.585617
1421104324971.00,-0.88885164,2.629432,9.508826
1421104324978.00,-0.83182025,2.5969496,9.524544
1421104324999.00,-0.7640112,2.4921675,9.602831
1421104325022.00,-0.947829,2.636168,9.67049
1421104325039.00,-1.1054512,2.7583141,9.675281
1421104325062.00,-1.1557466,2.8859985,9.543704
1421104325090.00,-1.0874885,2.802472,10.04097
1421104325097.00,-1.1362871,2.4399261,9.976304
1421104325116.00,-1.1160791,2.4792943,9.465567
1421104325148.00,-1.1009605,2.9734168,9.064101
1421104325156.00,-1.3989908,3.1689103,9.495355
1421104325180.00,-1.7010627,2.8629465,9.898466
1421104325197.00,-1.4343174,2.5008495,9.792187
1421104325216.00,-1.42339,2.764601,9.618698
1421104325236.00,-1.2774435,3.13538,9.176667
1421104325256.00,-1.1371852,3.635041,8.935967
1421104325276.00,-1.0029144,3.0674212,9.193132
1421104325298.00,-1.2141252,2.705923,9.344768
1421104325316.00,-1.3400134,3.1246023,9.791738
1421104325336.00,-1.251248,3.1103818,10.144255
1421104325356.00,-1.1014096,3.185825,10.227182
1421104325376.00,-0.93196195,3.3343163,9.896819
1421104325397.00,-0.8735834,3.0404773,9.39147
1421104325416.00,-0.9011261,3.1783407,9.44461
1421104325436.00,-0.81415695,3.3352144,9.345516
1421104325456.00,-0.8893007,3.2751892,9.2521105
1421104325476.00,-0.8813672,3.2891102,9.418414
1421104325496.00,-0.80876815,3.1855257,9.428742
1421104325516.00,-0.7246431,3.032544,9.533674
1421104325536.00,-0.66566575,3.0355375,9.542656
1421104325556.00,-0.68767,2.9509635,9.268725
1421104325576.00,-0.404908,3.3379087,9.216334
1421104325596.00,-0.5426216,3.3934433,10.019863
1421104325619.00,-0.7607181,3.166515,9.833201
1421104325636.00,-0.9057664,2.945425,9.474398
1421104325656.00,-0.8851094,3.0205686,9.235944
1421104325677.00,-1.0910811,3.0005105,9.136849
1421104325697.00,-1.0767109,3.177143,9.690548
1421104325717.00,-0.5974077,3.0337412,10.177336
1421104325737.00,-0.7008426,2.9175828,9.926757
1421104325756.00,-1.165177,2.8512707,9.672436
1421104325776.00,-0.9969269,2.943479,9.11754
1421104325797.00,-1.0380913,2.8145971,9.216035
1421104325830.00,-1.0621911,2.669848,9.591005
1421104325842.00,-1.1554472,2.5773404,9.679321
1421104325863.00,-1.140179,2.8253746,9.963431
1421104325894.00,-1.2090358,2.8285182,10.157128
1421104325898.00,-1.2196637,2.6840684,9.983339
1421104325917.00,-1.1960129,2.7442434,9.529484
1421104325936.00,-1.0826985,2.6502388,9.360186
1421104325958.00,-0.8884026,2.6430538,9.206755
1421104325977.00,-0.9129515,2.6152117,9.661359
1421104325996.00,-1.1458671,2.531835,9.950408
1421104326017.00,-1.3154645,2.6834698,9.830807
1421104326037.00,-1.3991405,2.4260051,9.476943
1421104326056.00,-1.5417938,2.4327412,9.187894
1421104326079.00,-1.4123131,2.5436604,9.012459
1421104326097.00,-1.3600717,2.5026457,9.489367
1421104326116.00,-1.2798386,2.4544458,9.813593
1421104326136.00,-1.2051439,2.3998096,9.713151
1421104326156.00,-1.0892848,2.6954448,9.75746
1421104326179.00,-0.9145981,2.6265879,9.537267
1421104326197.00,-0.97058165,2.5849745,9.65642
1421104326216.00,-0.8250842,2.7186465,9.725426
1421104326237.00,-0.8625064,2.5658143,9.562864
1421104326257.00,-0.8866063,2.66401,9.684411
1421104326277.00,-0.6954538,2.667902,9.806856
1421104326298.00,-0.8092172,2.6249413,9.753867
1421104326317.00,-0.8770262,2.6120682,9.621392
1421104326343.00,-1.0172845,2.602039,9.848919
1421104326357.00,-1.0047107,2.5801845,9.9468155
1421104326381.00,-0.9970766,2.3614893,9.987531
1421104326397.00,-1.1231145,2.4339385,9.652977
1421104326418.00,-1.1118878,2.7162516,9.484128
1421104326436.00,-0.945434,2.6923013,9.565109
1421104326457.00,-0.6990463,2.6393116,9.481133
1421104326476.00,-0.8367599,2.6830206,9.563164
1421104326497.00,-0.99977094,2.6512866,9.340426
1421104326517.00,-1.0590477,2.8238778,9.585018
1421104326536.00,-0.82972455,2.667453,9.746831
1421104326557.00,-0.7818242,2.6363177,9.579779
1421104326576.00,-0.6629713,2.5647666,9.482481
1421104326598.00,-0.7604187,2.8042686,9.356893
1421104326617.00,-0.89004916,2.851121,9.282198
1421104326636.00,-0.77419007,2.770439,9.5455
1421104326657.00,-0.6951544,2.6792784,9.601483
1421104326676.00,-0.63632673,2.775229,9.645941
1421104326696.00,-0.54726195,2.7038274,9.553134
1421104326716.00,-0.5053491,2.7072701,9.405392
1421104326738.00,-0.66401917,2.6589208,9.643396
1421104326757.00,-0.74095917,2.5661137,9.735006
1421104326782.00,-0.34608033,2.258204,9.923614
1421104326797.00,-0.6908134,2.7288253,9.528735
1421104326816.00,-0.67674273,2.4629781,9.686058
1421104326836.00,-0.58558226,2.4071443,9.654473
1421104326856.00,-0.62450135,2.311643,9.774973
1421104326878.00,-0.75338334,2.2960753,9.738749
1421104326897.00,-0.8741821,2.2493725,9.594448
1421104326916.00,-0.8421487,2.4466622,9.640852
1421104326936.00,-0.76161623,2.4291487,9.663305
1421104326956.00,-0.7934999,2.3016138,9.759705
1421104326976.00,-0.9011261,2.16884,9.795181
1421104326997.00,-0.7417076,2.0270846,9.707463
1421104327016.00,-0.895887,2.1634512,9.731114
1421104327036.00,-0.88735473,2.386637,9.78605
1421104327057.00,-0.8018825,2.2065613,9.802964
1421104327076.00,-0.9473799,2.2137465,9.739646
1421104327096.00,-0.87088895,2.3514602,9.746981
1421104327117.00,-0.7867639,2.227368,9.784103
1421104327143.00,-0.83406556,2.433789,9.628278
1421104327157.00,-0.84843564,2.1472847,9.653425
1421104327176.00,-0.7518864,2.177971,9.860894
1421104327197.00,-1.0208771,2.3079007,9.843081
1421104327216.00,-0.9104068,2.3207738,10.000704
1421104327236.00,-0.9190887,2.3378384,10.030043
1421104327258.00,-0.8321196,2.0624113,9.904753
1421104327278.00,-0.83182025,2.1689897,9.798624
1421104327299.00,-0.8903485,2.1002824,9.69429
1421104327317.00,-0.757874,2.2517674,9.76689
1421104327336.00,-0.79230237,2.1652474,9.604029
1421104327356.00,-0.7705975,2.2611978,9.628877
1421104327376.00,-0.9226813,2.3161335,9.55014
1421104327396.00,-0.9009764,2.257755,9.841135
1421104327416.00,-0.8399034,2.2978716,9.685908
1421104327436.00,-0.9985735,2.3945704,9.792486
1421104327459.00,-0.91235274,2.3237677,9.458082
1421104327482.00,-1.0062076,2.2269192,9.569001
1421104327498.00,-0.88466036,2.2632935,9.626781
1421104327517.00,-0.99737597,2.2614973,9.703721
1421104327536.00,-0.9542656,2.22647,9.834699
1421104327558.00,-0.98195803,2.3227198,9.742191
1421104327577.00,-0.8518785,2.2041664,9.798325
1421104327597.00,-0.9868977,2.230811,9.760753
1421104327618.00,-0.9559122,2.3215225,9.764495
1421104327639.00,-0.8149054,2.2725742,9.554631
1421104327657.00,-0.8946895,2.3170316,9.486672
1421104327678.00,-0.81161225,2.289489,9.592503
1421104327724.00,-0.8960367,2.4122338,9.6372595
1421104327725.00,-0.9277707,2.3195765,9.668394
1421104327757.00,-0.929567,2.2261705,9.682316
1421104327758.00,-0.9321117,2.377955,9.594598
1421104327777.00,-0.8779243,2.1757255,9.678274
1421104327797.00,-0.92178315,2.3851402,9.781709
1421104327817.00,-0.93196195,2.3026617,9.734108
1421104327844.00,-0.97746736,2.4008574,9.719289
1421104327858.00,-1.0313553,2.2734723,9.735604
1421104327877.00,-0.9602531,2.2439835,9.76195
1421104327897.00,-0.79679304,2.3887327,9.582623
1421104327918.00,-0.7981403,2.3022125,9.455687
1421104327937.00,-0.7430548,2.1791685,9.7040205
1421104327970.00,-0.8827144,2.2876928,9.792336
1421104327981.00,-0.9425899,2.1302202,9.764944
1421104327997.00,-0.9315129,2.252965,9.738299
1421104328017.00,-0.8150551,2.2269192,9.543405
1421104328036.00,-0.8268805,2.2459295,9.5616665
1421104328056.00,-0.8649014,2.3373895,9.672136
1421104328077.00,-0.85367477,2.292782,9.764345
1421104328096.00,-0.82044387,2.3641837,9.5440035
1421104328117.00,-0.7711963,2.2004242,9.407337
1421104328137.00,-0.74889266,2.3294559,9.461824
1421104328157.00,-0.735271,2.3999593,9.818532
1421104328178.00,-0.78152484,1.9607725,10.316996
1421104328222.00,-0.8399034,2.0968397,10.363849
1421104328223.00,-0.9846524,2.0987856,10.087822
1421104328237.00,-0.94932586,2.251468,9.704619
1421104328257.00,-1.0590477,2.1463866,9.537416
1421104328277.00,-1.0689272,2.202819,9.830657
1421104328298.00,-0.9327104,2.5682094,9.886491
1421104328317.00,-0.97716796,2.41403,10.206526
1421104328337.00,-1.3721966,2.0540285,10.162517
1421104328357.00,-1.0907817,2.0160077,9.624236
1421104328377.00,-0.9647438,2.3087988,9.380992
1421104328398.00,-1.0246193,2.5399182,9.166339
1421104328417.00,-0.9071137,2.6918523,9.392219
1421104328436.00,-0.85307604,2.4860303,9.499097
1421104328457.00,-1.0365944,2.3315516,9.830956
1421104328478.00,-0.97731763,2.315385,9.959839
1421104328497.00,-1.1150312,2.3311024,9.990674
1421104328523.00,-1.1380833,2.3330483,9.802217
1421104328537.00,-1.0642868,2.3300545,9.667646
1421104328557.00,-0.95097244,2.2156925,9.67543
1421104328583.00,-1.0641371,2.4768991,9.611064
1421104328597.00,-1.0879376,2.3297553,9.596544
1421104328616.00,-1.0975177,2.2891896,9.881103
1421104328637.00,-1.1713142,2.1395009,10.075548
1421104328660.00,-1.3742921,2.1183949,10.047855
1421104328676.00,-0.9671388,2.3519092,9.648786
1421104328698.00,-0.7497908,2.2833517,9.67992
1421104328742.00,-0.8171507,2.1692889,9.750873
1421104328743.00,-1.3356725,2.623744,10.7049885
1421104328757.00,-1.7729132,3.2789314,11.296109
1421104328777.00,0.38185593,0.893492,11.515254
1421104328798.00,-0.7526349,2.8259733,7.7140584
1421104328818.00,0.36703673,2.5027955,7.8809614
1421104328838.00,0.4236191,2.5306375,8.71817
1421104328857.00,0.2255809,3.2340248,9.089848
1421104328877.00,0.11421249,2.8066635,8.452922
1421104328905.00,0.3106041,2.5776398,7.7751317
1421104328917.00,0.55295014,2.6815238,7.7877054
1421104328937.00,0.94872713,3.0443692,8.037386
1421104329076.00,0.9048683,2.853516,8.274194
1421104329077.00,0.37347335,2.927612,8.922496
1421104329078.00,0.08068222,2.8940818,9.191936
1421104329078.00,-0.5216652,3.0262568,9.534423
1421104329079.00,-0.7831714,3.0828393,9.93993
1421104329080.00,-0.8571176,2.5126748,10.227931
1421104329081.00,-0.57106245,2.1149518,10.2933445
1421104329120.00,-0.3598517,1.7094452,10.612032
1421104329120.00,-0.2667453,1.9435583,10.547815
1421104329165.00,-0.10807525,1.8351837,10.284963
1421104329165.00,-0.028590545,1.7200731,10.162517
1421104329176.00,-0.065264285,1.5756235,10.25233
1421104329198.00,0.24339385,1.4651532,10.255474
1421104329216.00,0.45280838,1.3130695,10.553055
1421104329237.00,0.74006104,1.4401551,10.637928
1421104329257.00,0.034428407,1.2415183,15.814613
1421104329278.00,1.525328,0.88061875,9.659114
1421104329297.00,0.9331595,1.9157163,9.470356
1421104329317.00,1.4874568,2.1824615,8.81008
1421104329337.00,1.1421249,2.913691,8.755742
1421104329357.00,0.44517425,2.499652,9.513916
1421104329377.00,0.6816824,1.6202307,8.753946
1421104329397.00,0.6030958,1.6274158,8.7279005
1421104329420.00,0.5733078,1.439257,9.962533
1421104329444.00,-0.18726058,1.4359639,10.498718
1421104329457.00,-0.20716919,1.7320482,9.968071
1421104329477.00,0.24668701,2.030677,9.701326
1421104329497.00,0.13606705,2.4504044,9.854608
1421104329519.00,0.23785537,1.72636,9.402697
1421104329538.00,0.08996292,1.2969031,9.57888
1421104329557.00,-0.19624192,1.2433145,10.012528
1421104329577.00,-0.1300795,1.9214044,10.318343
1421104329597.00,-0.025447082,2.2665865,10.056388
1421104329619.00,0.066461794,2.4426205,9.724977
1421104329639.00,-0.24384293,1.9336789,9.601184
1421104329657.00,-0.55414766,1.3705499,9.695039
1421104329677.00,-1.6742684,1.411864,10.505454
1421104329697.00,-1.3804294,1.0988649,10.736723
1421104329717.00,-0.41224274,2.0314257,10.179282
1421104329750.00,-0.13891113,2.24578,9.687405
1421104329763.00,-0.035775606,2.407294,9.695488
1421104329789.00,-0.07634125,2.626139,9.64654
1421104329797.00,0.3860472,2.0963905,9.156908
1421104329817.00,0.35521135,1.9764899,9.009614
1421104329839.00,0.102237396,2.1589603,9.408236
1421104329871.00,0.29563522,2.223177,9.263637
1421104329877.00,0.2640509,1.6667839,9.472752
1421104329897.00,0.24069947,1.3326787,9.998907
1421104329917.00,0.30072463,2.0287313,10.028096
1421104329939.00,-0.030087434,1.8955083,9.999057
1421104329957.00,-0.3742218,1.9760408,9.737251
1421104329977.00,-0.22318588,1.237776,9.871372
1421104329997.00,0.19758911,1.0846444,9.67064
1421104330038.00,0.3106041,0.9577084,9.546997
1421104330039.00,-0.052391052,1.3578264,9.427695
1421104330060.00,-0.10912308,1.1635305,10.064471
1421104330077.00,-0.07634125,1.5575111,10.679542
1421104330097.00,0.5105882,1.7199234,11.189232
1421104330122.00,0.6059399,2.0913012,10.490186
1421104330137.00,0.024249572,1.8251545,9.304801
1421104330167.00,-0.008382568,0.88855225,9.301357
1421104330176.00,0.32033387,1.8314415,9.653874
1421104330197.00,0.2917433,2.0692968,10.315798
1421104330217.00,0.15971786,2.1219873,10.348431
1421104330237.00,0.38829255,2.2237756,10.0417185
1421104330257.00,0.3170407,2.2570066,10.161469
1421104330277.00,0.30461654,1.7778529,10.386452
1421104330297.00,0.4403842,1.8796413,10.460248
1421104330331.00,0.40131545,1.9895128,9.83919
1421104330337.00,0.7283853,2.4114852,9.745335
1421104330357.00,0.78661424,1.971101,9.526789
1421104330377.00,0.73063064,1.8122814,8.979078
1421104330398.00,0.81640226,1.5295193,9.130114
1421104330417.00,0.90157515,1.7751585,9.170529
1421104330437.00,1.2880714,1.8479073,9.31947
1421104330457.00,1.1915222,2.0251386,9.125772
1421104330477.00,0.90501803,1.7461189,8.709489
1421104330505.00,0.9969269,1.3659096,8.171657
1421104330519.00,1.2769945,0.15582596,10.556348
1421104330538.00,0.77149564,1.1720626,10.220896
1421104330557.00,0.9969269,1.3521382,9.237441
1421104330577.00,1.5329622,1.5760726,9.53083
1421104330599.00,2.0739372,1.2265494,9.889784
1421104330617.00,2.2821543,0.40670425,9.98813
1421104330643.00,2.2923331,0.86415297,9.558523
1421104330657.00,1.5164964,1.0880873,8.918754
1421104330678.00,1.9380199,0.5763016,7.6764865
1421104330698.00,3.5417848,0.3689827,6.0854454
1421104330717.00,4.779561,-0.50609756,4.0876994
1421104330737.00,4.663253,-0.6084846,5.5992565
1421104330757.00,4.7527666,0.7590715,7.6707983
1421104330777.00,3.9860609,0.7776329,6.563401
1421104330798.00,4.627627,1.1499088,2.8392956
1421104330825.00,5.0841775,1.9212548,0.94678116
1421104330838.00,5.5678215,0.47151947,1.6028668
1421104330857.00,5.670957,0.38140687,3.798501
1421104330877.00,7.3319035,-1.2123289,6.062992
1421104330897.00,8.027357,-1.6790584,7.1215906
1421104330918.00,7.4461155,-1.2225078,5.6673646
1421104330937.00,7.2437367,-1.8791922,5.1976414
1421104330962.00,8.475675,-2.8297155,6.257288
1421104330978.00,10.340048,-3.0288017,8.143516
1421104331018.00,10.716365,-3.1780412,8.543933
1421104331023.00,9.76644,-2.5173151,7.0530334
1421104331039.00,9.518107,-2.4427702,6.178851
1421104331058.00,10.683284,-2.7095156,6.1584935
1421104331080.00,11.884985,-3.1966026,6.2842317
1421104331097.00,12.089161,-3.1530433,6.2849803
1421104331117.00,10.759625,-1.7751585,5.282964
1421104331142.00,11.952495,-3.6742594,4.7833033
1421104331161.00,13.005555,-5.178481,5.301226
1421104331188.00,12.814403,-4.4259963,4.8629375
1421104331198.00,11.453732,-2.805915,3.719166
1421104331219.00,10.857372,-2.615062,2.7611582
1421104331238.00,9.648486,-2.9816496,-3.2422576
1421104331260.00,9.253008,-2.4586372,-1.9984941
1421104331278.00,7.1653,-3.4262252,-3.4664915
1421104331297.00,5.841752,-2.4754024,-1.6343014
1421104331317.00,6.553522,-3.5509157,1.6368462
1421104331340.00,7.478748,-3.8564305,2.645299
1421104331358.00,6.292315,-2.5396187,0.1445993
1421104331381.00,4.8047085,-2.2040167,-2.6870623
1421104331397.00,3.687881,-6.365363,-7.343429
1421104331417.00,2.6354196,-6.918164,-6.553971
1421104331437.00,6.4051805,-4.1592507,4.964726
1421104331457.00,9.325907,-4.690496,-6.3857207
1421104331477.00,6.3114753,-6.4887066,-7.0211496
1421104331497.00,4.9379315,-10.241253,1.1707155
1421104331517.00,4.9897237,-10.0577345,2.1574636
1421104331538.00,5.3654423,-7.8842545,1.4774277
1421104331559.00,5.2789226,-10.461445,-1.8441651
1421104331587.00,5.503755,-11.351944,-1.3248949
1421104331600.00,5.9112077,-13.262271,0.40236327
1421104331644.00,5.758226,-12.081377,1.7588425
1421104331644.00,4.9994535,-4.687053,0.10657837
1421104331661.00,3.9839654,-7.0355196,-0.28575575
1421104331678.00,3.5227745,-9.505982,-1.475332
1421104331697.00,4.296216,-9.571695,-2.081272
1421104331717.00,5.0163684,-7.349267,-1.3934523
1421104331740.00,3.2280374,-8.176147,-0.66431856
1421104331759.00,1.9847227,-8.976084,-2.0556753
1421104331787.00,1.916315,-10.283016,-1.5423926
1421104331798.00,2.1357586,-9.216634,-1.4115646
1421104331828.00,2.912194,8.59812,0.5216652
1421104331842.00,1.7188755,2.977608,-3.6997063
1421104331867.00,2.3998096,-5.056784,-0.21989273
1421104331882.00,1.0666819,-4.970564,0.3213817
1421104331905.00,0.3079097,-6.051017,1.0154883
1421104331921.00,0.37362304,-6.0882893,0.9395961
1421104331938.00,-0.48843428,-5.2620077,3.6862345
1421104331957.00,-1.2144246,-3.6197727,0.46164
1421104331978.00,-0.9782158,-3.250341,-1.6974701
1421104331997.00,-0.63617706,-2.84678,0.6141728
1421104332019.00,-7.47785,-13.283077,5.5793476
1421104332038.00,-7.418423,-17.294886,2.6421556
1421104332058.00,-2.0213964,-1.5916401,-8.746911
1421104332078.00,-2.805466,-4.1242237,-6.084697
1421104332106.00,-1.4495856,-9.293574,1.6170872
1421104332117.00,-1.8935623,-7.935598,4.3269024
1421104332142.00,-2.6463468,-8.247699,3.0100906
1421104332157.00,-2.7119105,-9.206006,1.8279986
1421104332177.00,-1.9422112,-9.995464,-1.0490185
1421104332197.00,-1.1064991,-10.246942,-1.8395247
1421104332217.00,-0.8653505,-10.216405,-1.2162209
1421104332238.00,-1.1335927,-9.44416,-0.37212616
1421104332259.00,-1.1689192,-9.372459,0.26973906
1421104332277.00,-0.86609894,-9.605675,-0.1445993
1421104332298.00,-0.5300478,-9.595346,-0.84229845
1421104332321.00,-0.2906955,-9.690847,-0.9463321
1421104332338.00,-0.25177643,-9.7796135,-0.57510406
1421104332358.00,-0.32856673,-9.835597,-0.35266662
1421104332378.00,-0.35880387,-9.782757,-0.55295014
1421104332398.00,-0.47211823,-9.706265,-0.27378067
1421104332417.00,-0.48020142,-9.708062,0.012124786
1421104332440.00,-0.4297563,-9.685908,-0.07394623
1421104332463.00,-0.2775229,-9.603879,-0.16136444
1421104332477.00,-0.48109955,-9.663605,0.048948213
1421104332497.00,-0.8503816,-9.677975,0.22498214
1421104332517.00,-0.92747134,-9.67049,0.122295685
1421104332538.00,-0.47870454,-9.539662,-0.18950592
1421104332557.00,-0.13861175,-9.629176,-0.2549199
1421104332577.00,-0.07589218,-9.725426,0.09580078
1421104332597.00,-0.13786331,-9.76195,0.13861175
1421104332671.00,-0.41074586,-9.754017,-0.036673736
1421104332672.00,-0.8045769,-9.637709,0.15088624
1421104332672.00,-0.98959213,-9.586365,0.3065625
1421104332679.00,-0.8168514,-9.477541,0.3385959
1421104332698.00,-0.8955876,-9.849368,0.2839595
1421104332724.00,-1.0737172,-9.749975,0.45475432
1421104332744.00,-1.1304492,-9.740245,0.4236191
1421104332757.00,-0.96010345,-9.756861,0.2856061
1421104332777.00,-0.8955876,-9.778416,0.25716522
1421104332797.00,-0.75083864,-9.8640375,0.05029541
1421104332817.00,-0.66850984,-9.850117,-0.1552272
1421104332838.00,-0.7580237,-9.634266,-0.07319778
1421104332857.00,-1.0243199,-9.366472,0.20597167
1421104332878.00,-1.2434642,-9.299861,-0.23561005
1421104332899.00,-0.48139894,-9.685908,-0.27812165
1421104332959.00,-0.25806335,-9.755363,-0.5692662
1421104332960.00,-0.38679564,-9.623188,-0.6950047
1421104332960.00,-0.57540345,-9.683962,-0.875679
1421104332977.00,-0.67359924,-9.715097,-1.0030642
1421104332997.00,-0.8744815,-9.539513,-0.8680449
1421104333018.00,-1.0054592,-9.429641,-0.8481363
1421104333038.00,-0.9364526,-9.532927,-0.9054671
1421104333057.00,-1.3552817,-9.87751,-0.875679
1421104333077.00,-1.4464421,-9.596395,-0.75996965
1421104333097.00,-0.8626561,-9.3630295,-1.3388159
1421104333117.00,-0.3248245,-9.11275,-1.7429755
1421104333138.00,0.001646576,-8.938811,-1.7226177
1421104333159.00,0.04101471,-9.065598,-1.9672092
1421104333178.00,0.33784744,-9.429641,-2.4748037
1421104333198.00,0.554447,-9.403445,-2.7418482
1421104333279.00,-0.5481601,-8.9811735,-2.35625
1421104333280.00,-0.9818083,-9.106762,-2.4013064
1421104333280.00,-0.9753717,-9.34836,-2.9880862
1421104333281.00,-0.8702902,-9.398655,-3.5604959
1421104333298.00,-0.8418494,-8.795111,-2.7734327
1421104333317.00,-0.6047424,-8.624615,-2.7767258
1421104333337.00,-0.5090913,-8.886869,-3.2235465
1421104333358.00,-0.79828995,-9.101673,-3.032544
1421104333378.00,-0.71506304,-9.032966,-3.4236803
1421104333399.00,-0.3028203,-8.643925,-4.198619
1421104333418.00,-0.07244934,-8.315059,-4.838688
1421104333438.00,-0.11376343,-8.300838,-4.336931
1421104333457.00,-0.2296225,-8.263416,-3.902385
1421104333478.00,0.05613327,-8.263566,-3.8426592
1421104333497.00,0.3195854,-8.463999,-4.746031
1421104333517.00,0.50235534,-8.474477,-5.327721
1421104333537.00,0.21824616,-8.005503,-5.309758
1421104333610.00,0.29907808,-7.833959,-5.1624646
1421104333610.00,0.17663269,-7.6776843,-4.9572415
1421104333611.00,0.102387086,-7.768545,-5.018015
1421104333618.00,-0.19459534,-7.869585,-5.3106565
1421104333637.00,0.30895752,-8.029752,-5.992788
1421104333658.00,0.42376876,-8.093968,-6.3785357
1421104333680.00,0.22468276,-7.1126094,-5.885162
1421104333699.00,-0.06990463,-6.285579,-5.6273975
1421104333718.00,0.3516188,-6.1734624,-5.87154
1421104333738.00,0.8247849,-6.5373554,-6.207591
1421104333758.00,0.65458876,-7.209458,-6.2518992
1421104333777.00,0.10044113,-7.3359447,-6.0596986
1421104333798.00,-0.30461654,-7.37187,-5.9308167
1421104333817.00,-0.030536499,-7.4202194,-6.070776
1421104333837.00,0.064066775,-7.3287597,-6.494694
1421104333858.00,-0.15702347,-7.110364,-6.854696
1421104333877.00,-0.1552272,-6.8931656,-7.055428
1421104333899.00,-0.13187577,-7.079378,-6.7273107
1421104333957.00,-0.1565744,-7.187304,-7.0337234
1421104333958.00,-0.13142669,-6.5954347,-7.1527257
1421104333959.00,-0.21420456,-5.723498,-7.8212357
1421104333981.00,-0.20507355,-4.5780797,-8.171806
1421104333997.00,-0.17004639,-3.830235,-7.682624
1421104334018.00,-0.1978885,-3.2102244,-7.883207
1421104334037.00,0.16241226,-2.9600945,-8.283175
1421104334060.00,1.1614348,-2.9701235,-8.566686
1421104334078.00,1.3491445,-3.4793646,-8.4255295
1421104334098.00,1.4156063,-3.6862345,-8.385712
1421104334117.00,1.0289602,-3.1225066,-8.5083065
1421104334139.00,0.4671785,-2.2763164,-9.201066
1421104334157.00,0.8375084,-2.0683987,-9.191187
1421104334177.00,1.4810202,-2.6825716,-10.380164
1421104334197.00,0.60324556,-2.5848248,-11.846664
1421104334282.00,-0.56342834,-2.0604653,-11.323652
1421104334282.00,-0.57225996,-1.9002984,-11.094778
1421104334283.00,-0.023650818,-1.9332298,-10.896141
1421104334283.00,0.1978885,-1.7793498,-10.77669
1421104334297.00,0.26629624,-1.7363892,-10.479109
1421104334317.00,0.6209088,-2.137555,-9.88679
1421104334338.00,0.7858658,-2.4054978,-9.730665
1421104334358.00,0.8589139,-1.9094293,-9.321116
1421104334378.00,1.257535,-1.7404307,-8.916807
1421104334398.00,1.5479311,-1.7348922,-8.575367
1421104334419.00,1.8922151,-2.06301,-8.548424
1421104334437.00,1.950444,-1.8019528,-8.926388
1421104334458.00,1.973047,-1.581611,-9.341475
1421104334477.00,1.9276913,-1.7362394,-9.6532755
1421104334497.00,1.6931291,-1.8585352,-9.677675
1421104334519.00,1.9366727,-2.109563,-9.500743
1421104334582.00,2.0386107,-2.2448816,-9.178613
1421104334583.00,1.8459613,-2.237996,-8.672964
1421104334584.00,1.7968634,-1.6748672,-8.468789
1421104334598.00,1.7392333,-1.7315991,-8.591384
1421104334618.00,1.8203645,-1.812431,-9.066945
1421104334637.00,1.7055533,-1.7777033,-10.356962
1421104334657.00,1.7025595,-1.6808547,-10.872641
1421104334678.00,1.771566,-1.6131953,-9.823771
1421104334697.00,1.6437318,-1.3585749,-8.419841
1421104334720.00,1.7651294,-1.301244,-8.461754
1421104334737.00,1.6877403,-1.5368541,-8.927734
1421104334757.00,1.8359321,-1.8178198,-9.607471
1421104334780.00,1.787433,-1.8968555,-9.853709
1421104334797.00,1.7434245,-1.6158898,-9.427995
1421104334819.00,1.7429755,-1.5913408,-9.012609
1421104334838.00,1.8586849,-1.5971787,-8.675809
1421104334859.00,1.9016455,-1.6610957,-8.901239
1421104334880.00,1.9731967,-1.6587007,-9.331894
1421104334934.00,1.8838326,-1.6977695,-9.504934
1421104334935.00,1.926943,-1.6375946,-9.412427
1421104334937.00,1.9107765,-1.5386504,-9.235944
1421104334959.00,1.8320403,-1.6236736,-9.06934
1421104334978.00,2.043251,-1.68789,-9.139245
1421104334998.00,2.1838088,-1.6780106,-9.160051
1421104335018.00,2.2397923,-1.5858023,-9.110504
1421104335038.00,2.2255719,-1.497486,-9.268725
1421104335058.00,2.1598585,-1.5617024,-9.135952
1421104335079.00,2.1550684,-1.6621436,-9.022338
1421104335098.00,2.214944,-1.5820601,-9.063652
1421104335118.00,2.0366647,-1.6826509,-9.206455
1421104335138.00,2.0275338,-1.7125887,-9.264085
1421104335158.00,1.9130218,-1.7812958,-9.131162
1421104335178.00,1.8471588,-1.8634748,-9.024433
1421104335198.00,1.7944684,-1.8682649,-9.215436
1421104335257.00,1.6110997,-1.7886305,-9.411978
1421104335258.00,1.3567786,-1.719175,-9.323362
1421104335258.00,1.2205619,-1.7049545,-9.311836
1421104335280.00,1.2771442,-1.900897,-9.089848
1421104335298.00,1.2293935,-1.9070343,-9.144334
1421104335317.00,1.2268487,-1.9399658,-9.367221
1421104335338.00,1.4130615,-1.9806812,-9.288185
1421104335361.00,1.4519806,-2.0184028,-9.533974
1421104335378.00,1.4497353,-2.1725821,-9.393267
1421104335398.00,1.3952485,-2.1727319,-9.30016
1421104335418.00,1.2436138,-2.07259,-9.291179
1421104335438.00,1.1383827,-2.187551,-9.192983
1421104335458.00,1.2034973,-2.133214,-9.302106
1421104335478.00,1.0912308,-2.1046233,-9.257648
1421104335498.00,0.89798266,-2.1246817,-9.270522
1421104335518.00,0.780477,-1.936972,-9.224567
1421104335574.00,0.49457154,-2.1076171,-9.300759
1421104335575.00,0.46523255,-2.1686902,-9.422156
1421104335580.00,0.66791105,-2.17842,-9.471254
1421104335601.00,0.65369064,-2.0757334,-9.392219
1421104335618.00,0.8349637,-2.0553758,-9.266181
1421104335638.00,0.9446855,-2.0242405,-9.2360935
1421104335659.00,1.0353969,-1.9435583,-9.222771
1421104335678.00,0.9400452,-2.013912,-9.339977
1421104335701.00,1.0611434,-2.1269271,-9.323362
1421104335719.00,1.0606942,-2.1619542,-9.299262
1421104335738.00,1.0428814,-2.143243,-9.223819
1421104335758.00,1.0060579,-2.2189856,-9.175769
1421104335778.00,1.0231224,-2.1457877,-9.190738
1421104335798.00,0.8866063,-2.1023781,-9.404194
1421104335818.00,0.9548643,-2.2243743,-9.46871
1421104335838.00,1.0397378,-2.1989274,-9.396709
1421104335858.00,0.96010345,-2.160158,-9.302855
1421104335932.00,0.9168434,-2.144291,-9.353898
1421104335932.00,0.678539,-2.089954,-9.145082
1421104335933.00,0.57225996,-2.233206,-9.3613825
1421104335938.00,0.47211823,-2.3580465,-9.292826
1421104335958.00,0.6141728,-2.3037095,-9.363179
1421104335978.00,0.54890853,-2.2361999,-9.277557
1421104336003.00,0.5201683,-2.2071602,-9.279653
1421104336018.00,0.6234535,-2.2291644,-9.373957
1421104336038.00,0.75203615,-2.2194347,-9.188493
1421104336061.00,0.66686326,-2.3845413,-9.235195
1421104336078.00,0.626597,-2.1854553,-9.243578
1421104336098.00,0.7110214,-2.1932392,-9.305549
1421104336120.00,0.646805,-2.1483326,-9.279353
1421104336139.00,0.62734544,-2.076931,-9.224867
1421104336161.00,0.5547464,-2.038461,-9.323811
1421104336221.00,0.64725405,-2.1574636,-9.317524
1421104336222.00,0.7322772,-2.1025279,-9.3928175
1421104336223.00,0.6692583,-2.2583537,-9.391919
1421104336243.00,0.5629793,-2.209256,-9.237441
1421104336261.00,0.5391788,-2.194736,-9.299711
1421104336278.00,0.61537033,-2.202819,-9.315578
1421104336298.00,0.8158035,-2.1811144,-9.491313
1421104336318.00,0.75847274,-2.0805235,-9.4788885
1421104336338.00,0.8038284,-2.1074674,-9.269025
1421104336358.00,0.7322772,-2.19279,-9.220376
1421104336378.00,0.61087966,-2.0757334,-9.21394
1421104336398.00,0.55699176,-2.1570144,-9.265732
1421104336418.00,0.55833894,-2.14953,-9.526938
1421104336438.00,0.45265868,-2.0911515,-9.419762
1421104336459.00,0.50669634,-2.141297,-9.460177
1421104336479.00,0.5213658,-2.1528232,-9.249715
1421104336560.00,0.55324954,-2.13037,-9.110206
1421104336561.00,0.49726593,-2.1992266,-9.185498
1421104336562.00,0.54082537,-2.2246737,-9.213041
1421104336563.00,0.5519023,-2.2767653,-9.360934
1421104336583.00,0.5986052,-2.1541703,-9.415121
1421104336598.00,0.51912045,-2.1948857,-9.229208
1421104336618.00,0.6367758,-2.171684,-9.276659
1421104336638.00,0.51403105,-2.2838008,-9.220675
1421104336658.00,0.6487509,-2.2161415,-9.35345
1421104336678.00,0.47136977,-2.1165986,-9.379795
1421104336698.00,0.5542973,-2.0924985,-9.34836
1421104336718.00,0.52885026,-2.2540128,-9.234147
1421104336738.00,0.69320846,-2.1891975,-9.315578
1421104336760.00,0.62959075,-2.1941373,-9.216933
1421104336781.00,0.592917,-2.1951852,-9.247919
1421104336801.00,0.6062393,-2.1383033,-9.29058
1421104336868.00,0.5161267,-2.2329066,-9.298513
1421104336869.00,0.497715,-2.0845652,-9.294023
1421104336870.00,0.4899312,-2.0953426,-9.210048
1421104336878.00,0.49067962,-2.1083655,-9.307795
1421104336898.00,0.38155654,-2.1528232,-9.338631
1421104336919.00,0.48798522,-2.1945863,-9.39162
1421104336938.00,0.4472699,-2.0938458,-9.272617
1421104336958.00,0.39877075,-2.1957839,-9.32396
1421104336979.00,0.45071274,-2.2056632,-9.350156
1421104336998.00,0.2996768,-2.1278253,-9.364975
1421104337019.00,0.2773732,-2.1395009,-9.327105
1421104337039.00,0.28605515,-2.1845572,-9.242829
1421104337058.00,0.29054582,-2.1369562,-9.2890835
1421104337078.00,0.2811154,-2.1338127,-9.220077
1421104337098.00,0.37242553,-2.0576212,-9.291179
1421104337118.00,0.37018022,-2.1261785,-9.262738
1421104337139.00,0.4631369,-2.0832179,-9.284443
1421104337225.00,0.54786074,-2.0857627,-9.308244
1421104337226.00,0.57225996,-2.0294797,-9.352402
1421104337227.00,0.5122348,-2.1127067,-9.443861
1421104337228.00,0.7041357,-2.0754342,-9.442365
1421104337238.00,0.68916684,-2.1770728,-9.342522
1421104337258.00,0.7164102,-2.1258793,-9.360485
1421104337278.00,0.7164102,-2.2441332,-9.402397
1421104337298.00,0.67704207,-2.1936882,-9.342073
1421104337318.00,0.7089258,-2.1071682,-9.265732
1421104337338.00,0.80248123,-2.1146526,-9.386531
1421104337358.00,0.8002359,-2.052382,-9.414073
1421104337379.00,0.79769117,-2.1796174,-9.229058
1421104337398.00,0.8346643,-2.158212,-9.305249
1421104337419.00,0.7538324,-2.0865111,-9.272018
1421104337440.00,0.6834787,-2.1754262,-9.321116
1421104337459.00,0.5980064,-2.0978875,-9.3856325
1421104337479.00,0.7104227,-2.1157005,-9.326805
1421104337561.00,0.7301816,-2.0667522,-9.275311
1421104337562.00,0.67584455,-2.1215382,-9.310339
1421104337562.00,0.574655,-2.0664527,-9.358988
1421104337563.00,0.5559439,-2.0944445,-9.3679695
1421104337584.00,0.56432647,-2.1576133,-9.3083935
1421104337598.00,0.4936734,-2.1526735,-9.214838
1421104337618.00,0.38844222,-2.0624113,-9.281599
1421104337638.00,0.47675857,-2.1369562,-9.2537565
1421104337658.00,0.5641768,-2.192341,-9.333541
1421104337679.00,0.46643007,-2.1436923,-9.329799
1421104337698.00,0.50864226,-2.2508693,-9.205856
1421104337719.00,0.54696256,-2.2499712,-9.289982
1421104337739.00,0.59890455,-2.2385948,-9.328152
1421104337759.00,0.47421387,-2.11585,-9.331744
1421104337778.00,0.40386018,-2.082769,-9.336235
1421104337800.00,0.49427214,-2.1318667,-9.296119
1421104337864.00,0.53049684,-2.1556673,-9.258846
1421104337865.00,0.60040146,-2.2646406,-9.235944
1421104337866.00,0.531844,-2.1481829,-9.367371
1421104337880.00,0.54606444,-2.1897962,-9.288784
1421104337898.00,0.619861,-2.109563,-9.234746
1421104337921.00,0.6394702,-2.0526814,-9.278904
1421104337939.00,0.6399193,-2.0832179,-9.304651
1421104337959.00,0.6306386,-2.237547,-9.278605
1421104337982.00,0.685724,-2.0930974,-9.24268
1421104337998.00,0.5987549,-2.2282662,-9.220975
1421104338018.00,0.667462,-2.1992266,-9.401799
1421104338038.00,0.64919996,-2.127376,-9.270223
1421104338058.00,0.67359924,-2.113904,-9.351204
1421104338078.00,0.54322034,-2.0948937,-9.414672
1421104338099.00,0.6442602,-2.1402493,-9.258697
1421104338156.00,0.61252624,-2.1574636,-9.387728
1421104338156.00,0.57794815,-2.1528232,-9.270073
1421104338160.00,0.5680687,-2.069746,-9.270073
1421104338178.00,0.7402107,-2.1534219,-9.398506
1421104338199.00,0.5255571,-2.0887563,-9.245673
1421104338219.00,0.4674779,-2.1803658,-9.419013
1421104338239.00,0.47765672,-2.0826192,-9.395362
1421104338259.00,0.506846,-2.1960833,-9.362281
1421104338282.00,0.62450135,-2.2357507,-9.391769
1421104338301.00,0.5933661,-2.1251307,-9.323811
1421104338320.00,0.63018954,-2.1426444,-9.180559
1421104338339.00,0.51941985,-2.2544618,-9.358389
1421104338359.00,0.58438474,-2.1859045,-9.318123
1421104338379.00,0.6117778,-2.0666025,-9.363778
1421104338399.00,0.5828879,-2.09669,-9.298064
1421104338420.00,0.56687117,-2.1547692,-9.315429
1421104338440.00,0.5800438,-2.0419037,-9.279353
1421104338495.00,0.49981064,-2.1679418,-9.392967
1421104338496.00,0.62959075,-2.0655546,-9.263187
1421104338501.00,0.5578899,-2.252965,-9.28624
1421104338521.00,0.49546966,-2.3126907,-9.28624
1421104338541.00,0.5842351,-2.3465204,-9.431288
1421104338558.00,0.5730084,-2.2658381,-9.396709
1421104338578.00,0.67868865,-2.1294718,-9.246122
1421104338598.00,0.63527894,-2.0618124,-9.31947
1421104338624.00,0.6774911,-2.1110601,-9.421258
1421104338638.00,0.7240443,-2.1809647,-9.368717
1421104338658.00,0.60773623,-2.0450473,-9.363329
1421104338679.00,0.5783972,-2.1094134,-9.261091
1421104338699.00,0.6456075,-2.2002745,-9.282348
1421104338719.00,0.59261763,-2.1785696,-9.334439
1421104338739.00,0.59501266,-2.0282822,-9.408834
1421104338759.00,0.5548961,-2.1246817,-9.3012085
1421104338779.00,0.4697232,-2.3002665,-9.316476
1421104338798.00,0.49142808,-2.068249,-9.364227
1421104338820.00,0.4843927,-2.0835173,-9.282946
1421104338839.00,0.37062928,-2.176923,-9.334439
1421104338918.00,0.51043856,-2.069746,-9.368717
1421104338919.00,0.51822233,-2.0556753,-9.378747
1421104338919.00,0.45295808,-2.0525317,-9.30974
1421104338920.00,0.49082932,-2.1113594,-9.432186
1421104338940.00,0.5616321,-2.1790187,-9.291328
1421104338959.00,0.60519147,-2.1131556,-9.234147
1421104338979.00,0.55414766,-2.0902534,-9.154663
1421104338999.00,0.6316864,-2.2589524,-9.242081
1421104339018.00,0.55010605,-2.119293,-9.245523
1421104339038.00,0.57914567,-2.0667522,-9.382938
1421104339060.00,0.60998154,-2.0592678,-9.407337
1421104339078.00,0.68677187,-2.0767813,-9.344169
1421104339132.00,0.60354495,-2.143243,-9.394315
1421104339132.00,0.63632673,-2.194287,-9.2537565
1421104339139.00,0.5990543,-2.1868026,-9.267229
1421104339158.00,0.54726195,-2.1541703,-9.265133
1421104339179.00,0.6012996,-2.1739292,-9.389075
1421104339199.00,0.705932,-2.1634512,-9.352701
1421104339219.00,0.542921,-2.1833596,-9.386381
1421104339241.00,0.6126759,-2.1818628,-9.379645
1421104339272.00,0.5736072,-2.0309765,-9.270971
1421104339281.00,0.5980064,-2.1450393,-9.355994
1421104339299.00,0.68243086,-2.1068687,-9.437574
1421104339320.00,0.5604346,-2.1318667,-9.323063
1421104339339.00,0.5204677,-2.2317092,-9.264085
1421104339359.00,0.5641768,-2.086062,-9.361233
1421104339379.00,0.63617706,-2.1980293,-9.399254
1421104339399.00,0.46687913,-2.192341,-9.366023
1421104339419.00,0.65878004,-2.2016218,-9.313333
1421104339499.00,0.58977354,-2.2097049,-9.344169
1421104339500.00,0.6210585,-2.2475762,-9.297466
1421104339500.00,0.51807266,-2.1097128,-9.388926
1421104339501.00,0.4538562,-2.2974224,-9.267229
1421104339522.00,0.5269043,-2.1911435,-9.346264
1421104339539.00,0.5110373,-2.2421873,-9.270971
1421104339559.00,0.5571414,-2.1718338,-9.294472
1421104339579.00,0.48349458,-2.2314098,-9.367071
1421104339601.00,0.5701643,-2.329905,-9.347611
1421104339619.00,0.6264473,-2.0664527,-9.397159
1421104339639.00,0.5548961,-2.1752765,-9.379346
1421104339659.00,0.5402266,-2.3113434,-9.362131
1421104339679.00,0.54157376,-2.1306694,-9.367371
1421104339699.00,0.5590874,-2.070195,-9.288634
1421104339719.00,0.5098398,-2.0820205,-9.340726
1421104339783.00,0.5533992,-2.2191353,-9.352102
1421104339784.00,0.5536986,-2.2311103,-9.408385
1421104339785.00,0.54890853,-2.3526576,-9.229358
1421104339799.00,0.5686675,-2.0996838,-9.271271
1421104339819.00,0.5771997,-2.2353017,-9.314081
1421104339839.00,0.712668,-2.1745281,-9.389524
1421104339859.00,0.7161108,-2.085613,-9.432784
1421104339879.00,0.581391,-2.227967,-9.309291
1421104339899.00,0.49202684,-2.26015,-9.289533
1421104339929.00,0.5510042,-2.201472,-9.323063
1421104339939.00,0.619861,-2.1609063,-9.320667
1421104339959.00,0.6595285,-2.2269192,-9.404194
1421104339979.00,0.61252624,-2.1912932,-9.309141
1421104339999.00,0.43828857,-2.3233187,-9.270223
1421104340019.00,0.5860313,-2.1414468,-9.282198
1421104340039.00,0.67449737,-2.109563,-9.297466
1421104340060.00,0.6743477,-2.203418,-9.27621
1421104340082.00,0.6402187,-2.181713,-9.318422
1421104340143.00,0.5803432,-2.176025,-9.425599
1421104340143.00,0.515977,-2.2611978,-9.275311
1421104340144.00,0.48379394,-2.1137545,-9.305848
1421104340159.00,0.6316864,-2.1213884,-9.479937
1421104340179.00,0.59890455,-2.1481829,-9.398954
1421104340199.00,0.65099627,-2.1165986,-9.329799
1421104340219.00,0.5363347,-2.2733226,-9.453142
1421104340239.00,0.6274951,-2.1971312,-9.276958
1421104340260.00,0.58483386,-2.2290146,-9.267529
1421104340279.00,0.5993536,-2.1748273,-9.255104
1421104340299.00,0.44233018,-2.2122495,-9.297167
1421104340319.00,0.5965096,-2.1408482,-9.285341
1421104340339.00,0.5854326,-2.0598664,-9.302256
1421104340359.00,0.6601273,-2.151027,-9.259295
1421104340380.00,0.58273816,-2.15911,-9.418264
1421104340399.00,0.52121615,-2.169738,-9.396859
1421104340482.00,0.597258,-1.9245479,-9.226364
1421104340483.00,0.59635985,-2.0636086,-9.261091
1421104340483.00,0.506846,-2.2064118,-9.377998
1421104340484.00,0.64126647,-2.0597167,-9.384584
1421104340505.00,0.5866301,-2.065854,-9.233399
1421104340519.00,0.5650749,-2.1444407,-9.297317
1421104340539.00,0.5680687,-2.1785696,-9.372459
1421104340560.00,0.57390654,-2.1978796,-9.280102
1421104340579.00,0.6453081,-2.0926483,-9.234746
1421104340605.00,0.6527925,-2.292782,-9.231453
1421104340619.00,0.6078859,-2.1441412,-9.414672
1421104340639.00,0.6575825,-2.1050725,-9.34342
1421104340659.00,0.5867798,-2.1439915,-9.35315
1421104340679.00,0.5936655,-2.160607,-9.277707
1421104340699.00,0.6860234,-1.9990928,-9.363479
1421104340719.00,0.6592291,-2.224075,-9.316177
1421104340778.00,0.60983187,-2.1871018,-9.286388
1421104340779.00,0.633782,-2.1396506,-9.304651
1421104340779.00,0.59097105,-2.140998,-9.370963
1421104340801.00,0.63812304,-2.090403,-9.277557
1421104340819.00,0.6038443,-2.0791764,-9.39641
1421104340840.00,0.62569886,-2.097588,-9.425
1421104340859.00,0.6354286,-2.0851638,-9.391769
1421104340879.00,0.64575714,-2.186054,-9.380842
1421104340904.00,0.6527925,-2.160158,-9.411678
1421104340922.00,0.65638506,-2.262994,-9.368568
1421104340941.00,0.6095325,-2.1761746,-9.24717
1421104340959.00,0.5954617,-2.1691391,-9.374855
1421104340980.00,0.70623136,-2.2653892,-9.176667
1421104340999.00,0.5840854,-2.1146526,-9.342373
1421104341019.00,0.49292496,-2.100881,-9.3944645
1421104341039.00,0.7113208,-2.0401075,-9.251362
1421104341106.00,0.6288423,-2.1392014,-9.34327
1421104341107.00,0.51208514,-2.1706362,-9.263038
1421104341108.00,0.7274872,-2.2324576,-9.295071
1421104341119.00,0.72898406,-2.1709356,-9.2890835
1421104341139.00,0.74230635,-2.0905526,-9.267229
1421104341160.00,0.63018954,-2.166894,-9.334589
1421104341179.00,0.78496766,-2.184108,-9.224567
1421104341199.00,0.6677614,-2.2420378,-9.281
1421104341222.00,0.7095245,-2.2227278,-9.155112
1421104341241.00,0.58707917,-2.2480252,-9.273366
1421104341260.00,0.76101744,-2.2495222,-9.3541975
1421104341281.00,0.7234456,-2.0660038,-9.490115
1421104341306.00,0.67644334,-1.9835253,-9.502689
1421104341320.00,0.7595206,-2.0085232,-9.34821
1421104341350.00,0.64381117,-1.9335293,-9.312883
1421104341361.00,0.8018825,-1.9981947,-9.253457
1421104341423.00,0.7336244,-2.0622616,-9.30046
1421104341424.00,0.7141649,-2.0007393,-9.3437195
1421104341425.00,0.803529,-2.121688,-9.364377
1421104341439.00,0.81011534,-1.9501446,-9.333241
1421104341459.00,0.8690927,-2.1378543,-9.221724
1421104341479.00,0.90441924,-2.0005898,-9.19433
1421104341500.00,1.0033635,-2.095193,-9.257499
1421104341519.00,1.016087,-2.117796,-9.412726
1421104341539.00,1.0692265,-2.0447478,-9.302705
1421104341559.00,1.1337423,-1.9639161,-9.366622
1421104341580.00,1.0916798,-1.950444,-9.349558
1421104341600.00,1.1807446,-1.9041902,-9.311237
1421104341619.00,1.2189152,-1.8815873,-9.331894
1421104341641.00,1.3314812,-1.8266515,-9.357042
1421104341660.00,1.3418097,-1.9284397,-9.3437195
1421104341682.00,1.3030403,-1.7286054,-9.379046
1421104341700.00,1.3982424,-1.8660196,-9.326356
1421104341760.00,1.5175443,-1.8868263,-9.347162
1421104341760.00,1.6594491,-1.9505937,-9.207802
1421104341761.00,1.5593075,-1.9032921,-9.230255
1421104341786.00,1.4989829,-1.7790505,-9.2521105
1421104341799.00,1.6263679,-1.8848804,-9.218281
1421104341819.00,1.5631993,-1.8256036,-9.192534
1421104341840.00,1.4184504,-2.0628603,-9.335486
1421104341859.00,1.4284794,-1.833088,-9.177266
1421104341879.00,1.4965879,-1.9598744,-9.346563
1421104341901.00,1.377735,-2.085613,-9.349558
1421104341919.00,1.3211527,-2.0612137,-9.293574
1421104341940.00,1.2933105,-1.9119741,-9.346713
1421104341959.00,1.3536351,-1.9763402,-9.206755
1421104341980.00,1.3145664,-1.8961071,-9.23774
1421104341999.00,1.3627661,-1.7905765,-9.259595
1421104342020.00,1.4132112,-1.8131795,-9.285192
1421104342088.00,1.3280383,-1.8958076,-9.269923
1421104342088.00,1.3515395,-1.8955083,-9.270971
1421104342089.00,1.4497353,-1.7682729,-9.221424
1421104342099.00,1.4187497,-1.935026,-9.1765175
1421104342120.00,1.4914985,-1.8679656,-9.230106
1421104342139.00,1.4985337,-1.830693,-9.182505
1421104342159.00,1.4805712,-1.7612375,-9.188193
1421104342179.00,1.6575032,-1.7384849,-9.202863
1421104342201.00,1.5190412,-1.8202149,-9.257199
1421104342220.00,1.4920971,-1.9339783,-9.198671
1421104342239.00,1.420995,-1.8526973,-9.134006
1421104342260.00,1.3494438,-1.9856209,-9.19957
1421104342280.00,1.1939173,-2.0282822,-9.261391
1421104342300.00,1.2949572,-1.9712508,-9.376501
1421104342320.00,1.1928694,-1.8592836,-9.221125
1421104342340.00,1.2064911,-1.9371217,-9.197923
1421104342423.00,1.1109897,-1.9019449,-9.24268
1421104342423.00,1.093027,-1.9106269,-9.191187
1421104342424.00,1.0761123,-1.9061362,-9.267677
1421104342424.00,0.96938413,-2.1347108,-9.302106
1421104342439.00,1.0063573,-2.1263282,-9.263786
1421104342460.00,1.133892,-1.9778371,-9.226214
1421104342480.00,1.1558963,-1.8288968,-9.395661
1421104342500.00,1.2343332,-1.8642234,-9.229507
1421104342521.00,1.3168117,-1.9041902,-9.260492
1421104342552.00,1.3370197,-1.8627264,-9.285192
1421104342559.00,1.3557308,-1.9070343,-9.289233
1421104342580.00,1.3889617,-1.9736458,-9.192833
1421104342599.00,1.3862672,-1.9570303,-9.084758
1421104342619.00,1.3810282,-1.9453546,-8.974887
1421104342641.00,1.2129277,-1.9306852,-9.205557
1421104342660.00,1.3361216,-1.8381774,-9.261241
1421104342749.00,1.2859758,-1.8628762,-9.413624
1421104342750.00,1.4323714,-1.8402731,-9.413475
1421104342751.00,1.3304334,-1.8775456,-9.263038
1421104342751.00,1.4103671,-1.8676661,-9.241333
1421104342760.00,1.3617183,-1.812431,-9.26199
1421104342779.00,1.5206877,-1.7904267,-9.190588
1421104342799.00,1.3745915,-1.8613793,-9.19433
1421104342820.00,1.4558725,-1.8625767,-9.361981
1421104342839.00,1.5643969,-1.7666262,-9.294172
1421104342860.00,1.6845969,-1.750909,-9.1202345
1421104342882.00,1.5555652,-1.7911752,-9.263038
1421104342900.00,1.4721886,-1.905238,-9.193582
1421104342919.00,1.5880476,-2.0017872,-9.377699
1421104342940.00,1.434916,-1.9368224,-9.215885
1421104342959.00,1.3711487,-1.9202069,-9.17038
1421104342979.00,1.3581258,-1.9598744,-9.234746
1421104343054.00,1.3813275,-1.9157163,-9.29058
1421104343055.00,1.2451108,-1.8860779,-9.362131
1421104343056.00,1.3040881,-2.002835,-9.32905
1421104343059.00,1.278192,-1.9577788,-9.30061
1421104343079.00,1.364263,-1.9438577,-9.304801
1421104343100.00,1.2741504,-2.0218456,-9.248368
1421104343119.00,1.2418176,-1.9386187,-9.217083
1421104343139.00,1.3202546,-1.9151175,-9.250763
1421104343160.00,1.3992902,-1.9779868,-9.297466
1421104343180.00,1.3560301,-1.9833755,-9.377399
1421104343199.00,1.3379178,-1.8318906,-9.140293
1421104343220.00,1.2666659,-1.8827847,-9.219178
1421104343241.00,1.253194,-1.7546512,-9.206605
1421104343260.00,1.3130695,-1.8220111,-9.296568
1421104343280.00,1.0737172,-1.8863772,-9.335187
1421104343302.00,1.178649,-1.8067429,-9.270073
1421104343319.00,1.2184662,-2.0079246,-9.319171
1421104343379.00,1.1337423,-1.8714083,-9.234297
1421104343390.00,0.99587905,-1.9531385,-9.3050995
1421104343391.00,1.0566527,-2.0055294,-9.255104
1421104343403.00,0.9859996,-1.9103274,-9.219927
1421104343421.00,1.1021581,-1.9758911,-9.288784
1421104343439.00,0.9541159,-1.9775376,-9.220675
1421104343460.00,1.022823,-2.0444486,-9.227561
1421104343482.00,1.1340418,-1.8925145,-9.311836
1421104343500.00,1.0505154,-2.0598664,-9.336684
1421104343519.00,1.0036628,-1.8462607,-9.227711
1421104343539.00,1.1172767,-1.9727477,-9.35345
1421104343560.00,1.0563533,-1.8348843,-9.283545
1421104343579.00,1.0665321,-1.7193246,-9.375903
1421104343599.00,1.2240046,-1.9910097,-9.197923
1421104343619.00,1.2268487,-1.9643651,-9.350156
1421104343639.00,1.1850857,-1.8239571,-9.402248
1421104343662.00,1.1876303,-1.9568807,-9.306297
1421104343742.00,1.2277468,-1.7839901,-9.296867
1421104343742.00,1.2707076,-1.9296373,-9.311387
1421104343743.00,1.1903247,-1.9434086,-9.326206
1421104343743.00,1.2382251,-1.8673668,-9.374556
1421104343765.00,1.1258088,-1.8886226,-9.316925
1421104343780.00,1.1776012,-1.9130218,-9.283694
1421104343800.00,1.1765534,-1.8553917,-9.277408
1421104343819.00,1.1802956,-1.8287472,-9.29537
1421104343839.00,1.1636801,-2.0016375,-9.22831
1421104343860.00,1.1326946,-1.9618204,-9.3083935
1421104343879.00,1.1674223,-1.9264939,-9.166339
1421104343899.00,1.2521461,-1.9740949,-9.333241
1421104343922.00,1.3371693,-1.9113753,-9.347611
1421104343941.00,1.3175601,-1.9384689,-9.289383
1421104344080.00,1.2452605,-1.9261944,-9.325008
1421104344081.00,1.3624667,-2.0276835,-9.265882
1421104344081.00,1.3286371,-1.9435583,-9.166937
1421104344082.00,1.283431,-2.031725,-9.292676
1421104344082.00,1.2778926,-1.9998413,-9.339528
1421104344083.00,1.1069481,-2.0152593,-9.235195
1421104344084.00,1.2099339,-1.8652711,-9.200019
1421104344160.00,1.1139835,-1.9026933,-9.244626
1421104344161.00,1.1186239,-1.9143691,-9.379795
1421104344162.00,1.0330019,-1.9434086,-9.404493
1421104344163.00,1.151705,-1.7928218,-9.328301
1421104344200.00,1.1320958,-1.875001,-9.24762
1421104344204.00,1.0036628,-1.8672171,-9.238488
1421104344221.00,1.0909314,-1.8116826,-9.260044
1421104344245.00,1.0310559,-1.7839901,-9.251811
1421104344260.00,1.171464,-1.7519568,-9.301956
1421104344280.00,1.1458671,-1.8241067,-9.373957
1421104344300.00,1.3186079,-1.8970052,-9.3100395
1421104344350.00,1.3795313,-1.9035915,-9.236842
1421104344350.00,1.3826747,-1.8589842,-9.361981
1421104344360.00,1.4337186,-1.87545,-9.304951
1421104344380.00,1.4099181,-1.9538869,-9.260642
1421104344400.00,1.3687537,-1.8959574,-9.310788
1421104344420.00,1.2466077,-1.9218535,-9.2184305
1421104344439.00,1.2693603,-1.8970052,-9.282198
1421104344460.00,1.1687695,-1.8943107,-9.301059
1421104344486.00,1.171913,-1.9574794,-9.275311
1421104344505.00,1.131497,-1.8405725,-9.278904
1421104344519.00,1.1268567,-1.9169137,-9.272468
1421104344540.00,0.96399534,-1.9655626,-9.205707
1421104344562.00,1.0401869,-1.9089803,-9.250164
1421104344580.00,1.1262579,-1.9077828,-9.452992
1421104344602.00,1.2641213,-1.9353255,-9.417516
1421104344622.00,1.237327,-1.9396664,-9.171428
1421104344643.00,1.3211527,-1.8372793,-9.248817
1421104344711.00,1.2683126,-1.8190173,-9.147478
1421104344712.00,1.4443464,-1.9151175,-9.315129
1421104344712.00,1.3834232,-1.864373,-9.413624
1421104344722.00,1.3169614,-1.9128722,-9.304801
1421104344740.00,1.4069242,-1.9477496,-9.362431
1421104344759.00,1.332978,-1.8996996,-9.259146
1421104344780.00,1.2847782,-1.9169137,-9.301357
1421104344800.00,1.2126284,-1.8565892,-9.340127
1421104344819.00,1.2702584,-1.8193167,-9.356893
1421104344840.00,1.2976515,-1.8965561,-9.236842
1421104344860.00,1.223406,-1.900897,-9.279054
1421104344879.00,1.1038046,-1.984124,-9.299861
1421104344900.00,1.0903326,-1.9531385,-9.245973
1421104344921.00,1.0347981,-1.9161654,-9.376053
1421104344942.00,1.0368937,-1.9800824,-9.279054
1421104345013.00,1.1294014,-1.9233503,-9.279353
1421104345014.00,1.1237133,-2.0085232,-9.247919
1421104345014.00,1.194965,-1.7687219,-9.286538
1421104345020.00,1.1820918,-1.8881736,-9.278904
1421104345040.00,1.1220666,-1.9088305,-9.278755
1421104345060.00,1.2319381,-1.9667602,-9.3541975
1421104345080.00,1.1488609,-1.9468515,-9.244626
1421104345100.00,1.1302996,-1.8911673,-9.331295
1421104345120.00,1.2133768,-1.8630258,-9.322614
1421104345141.00,1.1250604,-1.8703606,-9.398506
1421104345163.00,1.2470567,-1.8839822,-9.266031
1421104345186.00,1.2986994,-1.8940114,-9.246122
1421104345200.00,1.2482543,-1.88024,-9.369616
1421104345220.00,1.3058844,-1.9514918,-9.315429
1421104345240.00,1.3275893,-1.8422191,-9.303753
1421104345260.00,1.3431569,-1.884581,-9.217832
1421104345280.00,1.1594888,-1.8299446,-9.265133
1421104345342.00,1.2615765,-1.9895128,-9.278007
1421104345343.00,1.3850697,-1.8297949,-9.355395
1421104345343.00,1.3552817,-1.83698,-9.312883
1421104345365.00,1.2802876,-1.8134788,-9.249415
1421104345380.00,1.2946577,-1.9109262,-9.227262
1421104345400.00,1.2106824,-1.8871257,-9.089997
1421104345420.00,1.0728191,-1.8353333,-9.237591
1421104345440.00,1.1813434,-1.7821939,-9.167835
1421104345461.00,1.2528946,-1.861978,-9.273665
1421104345480.00,1.219514,-1.9332298,-9.320667
1421104345500.00,1.1476635,-1.8601817,-9.243877
1421104345520.00,1.1774515,-2.0791764,-9.292826
1421104345540.00,1.1832893,-1.8857785,-9.334888
1421104345560.00,1.1837384,-2.0445983,-9.303903
1421104345582.00,1.1645782,-2.032174,-9.390123
1421104345601.00,1.2674145,-1.9079324,-9.374705
1421104345660.00,1.2692107,-1.87545,-9.360335
1421104345661.00,1.2674145,-1.9886147,-9.298214
1421104345661.00,1.1515553,-1.988914,-9.265732
1421104345682.00,1.1831397,-1.9718496,-9.3293495
1421104345700.00,1.2039464,-1.8486557,-9.131461
1421104345720.00,1.2846286,-1.8682649,-9.203462
1421104345741.00,1.2159215,-2.0170555,-9.202863
1421104345760.00,1.119522,-2.032174,-9.34836
1421104345780.00,1.247356,-1.9157163,-9.231303
1421104345801.00,1.3793815,-1.8217118,-9.356443
1421104345820.00,1.4374608,-1.8146764,-9.325158
1421104345840.00,1.3945001,-1.7304016,-9.371562
1421104345861.00,1.314716,-1.8699116,-9.35315
1421104345880.00,1.3108242,-2.0151095,-9.334589
1421104345901.00,1.1660751,-1.9199076,-9.360335
1421104345921.00,1.1150312,-1.7774038,-9.289982
1421104345942.00,1.2723541,-1.7570462,-9.32396
1421104345961.00,1.2082874,-1.9410137,-9.310938
1421104346029.00,1.1526031,-1.9911593,-9.335636
1421104346030.00,1.1189232,-1.8844314,-9.182205
1421104346030.00,1.1084449,-1.8080901,-9.321865
1421104346040.00,1.0086026,-1.9505937,-9.249865
1421104346061.00,1.0931767,-2.003434,-9.1676855
1421104346080.00,1.146915,-1.8660196,-9.36782
1421104346100.00,1.1825409,-1.9023939,-9.313333
1421104346120.00,1.1862831,-1.8582358,-9.294472
1421104346153.00,1.219514,-1.9700532,-9.2331
1421104346160.00,1.3015435,-1.9396664,-9.276509
1421104346180.00,1.2566369,-1.945205,-9.373058
1421104346200.00,1.2046949,-1.9303857,-9.29043
1421104346222.00,1.1689192,-1.927392,-9.253008
1421104346240.00,1.18778,-2.0333717,-9.140293
1421104346302.00,1.2687616,-1.8878741,-9.235644
1421104346303.00,1.3302836,-1.8293458,-9.271121
1421104346303.00,1.3245955,-2.0031345,-9.332193
1421104346326.00,1.3627661,-1.8953586,-9.3470125
1421104346340.00,1.375789,-1.895658,-9.210197
1421104346360.00,1.35124,-1.9989432,-9.26693
1421104346380.00,1.2732522,-1.888922,-9.239686
1421104346400.00,1.4171032,-1.9205062,-9.331295
1421104346422.00,1.2564871,-1.9246975,-9.2537565
1421104346445.00,1.341211,-1.877396,-9.459728
1421104346460.00,1.2811857,-1.8015038,-9.31453
1421104346480.00,1.2325369,-1.9011965,-9.373957
1421104346500.00,1.1178753,-1.8883232,-9.264833
1421104346520.00,1.1412268,-1.9946022,-9.366173
1421104346540.00,1.3115726,-1.9196081,-9.400302
1421104346562.00,1.2906162,-1.8377284,-9.268426
1421104346582.00,1.1843371,-1.9359242,-9.225466
1421104346648.00,1.2022998,-1.8896704,-9.339378
1421104346648.00,1.1978091,-1.8368303,-9.443711
1421104346649.00,1.2322376,-1.8272502,-9.355395
1421104346661.00,1.1259586,-1.7362394,-9.302256
1421104346680.00,1.2696598,-1.7860858,-9.197623
1421104346700.00,1.2196637,-1.7432748,-9.430539
1421104346720.00,1.1663746,-1.8428178,-9.389674
1421104346741.00,1.2419673,-1.9886147,-9.39162
1421104346760.00,1.2499008,-1.8857785,-9.2697735
1421104346780.00,1.1096425,-1.8679656,-9.362131
1421104346800.00,1.2696598,-1.9308348,-9.463321
1421104346831.00,1.2796888,-1.9507434,-9.341624
1421104346848.00,1.2632232,-1.8781444,-9.36273
1421104346860.00,1.2540921,-1.9600241,-9.384884
1421104346880.00,1.2316388,-1.886527,-9.308543
1421104346956.00,1.3280383,-1.90913,-9.405392
1421104346957.00,1.2472064,-1.7910255,-9.341774
1421104346957.00,1.2518468,-1.8513501,-9.269624
1421104346961.00,1.2726535,-1.9022442,-9.368119
1421104346980.00,1.2843292,-1.9628682,-9.2609415
1421104347001.00,1.2371773,-1.9745439,-9.256302
1421104347020.00,1.1831397,-1.9020946,-9.31468
1421104347041.00,1.2513977,-2.031725,-9.320667
1421104347060.00,1.3207036,-2.028432,-9.411978
1421104347080.00,1.203647,-1.9200572,-9.370813
1421104347102.00,1.2094848,-1.9392173,-9.397009
1421104347120.00,1.1500584,-1.8034497,-9.304502
1421104347140.00,1.246907,-1.8959574,-9.411529
1421104347160.00,1.2340338,-1.8890717,-9.467362
1421104347181.00,1.3168117,-1.9767892,-9.363329
1421104347202.00,1.2096345,-1.9166144,-9.338331
1421104347221.00,1.2049942,-1.936523,-9.364377
1421104347303.00,1.2269984,-1.8130298,-9.265882
1421104347304.00,1.2314891,-1.8202149,-9.372011
1421104347304.00,1.1774515,-1.9272423,-9.424103
1421104347305.00,1.2193643,-1.8428178,-9.336085
1421104347327.00,1.1451187,-1.9583775,-9.336984
1421104347341.00,1.2650194,-1.8055453,-9.371412
1421104347360.00,1.1876303,-1.8239571,-9.331894
1421104347380.00,1.1746074,-1.838926,-9.258397
1421104347401.00,1.201701,-1.8514998,-9.310638
1421104347420.00,1.3692027,-1.8895208,-9.231453
1421104347441.00,1.2750485,-1.9404149,-9.275461
1421104347461.00,1.1889775,-1.8293458,-9.35345
1421104347481.00,1.2939093,-1.8699116,-9.205557
1421104347501.00,1.2994478,-1.9103274,-9.351953
1421104347520.00,1.2418176,-1.8844314,-9.347312
1421104347540.00,1.2802876,-1.9802321,-9.326805
1421104347616.00,1.2802876,-1.8887722,-9.290131
1421104347617.00,1.2255015,-1.9481987,-9.329799
1421104347618.00,1.3310322,-1.852847,-9.427995
1421104347623.00,1.2467574,-1.9267932,-9.310339
1421104347640.00,1.2395723,-1.8260527,-9.241931
1421104347660.00,1.1288027,-1.9672092,-9.273965
1421104347681.00,1.2382251,-1.864822,-9.362281
1421104347701.00,1.1466156,-1.9130218,-9.29552
1421104347725.00,1.2305909,-1.8949095,-9.340576
1421104347747.00,1.1755055,-1.9428099,-9.3277025
1421104347760.00,1.361868,-1.8444644,-9.331445
1421104347780.00,1.1816428,-1.8697618,-9.195678
1421104347800.00,1.2382251,-1.8363812,-9.272767
1421104347821.00,1.1910732,-1.9182609,-9.231902
1421104347841.00,1.2280463,-1.907184,-9.277108
1421104347862.00,1.239273,-1.9511925,-9.332343
1421104347881.00,1.1183244,-1.8685642,-9.332792
1421104347901.00,1.1683204,-1.9046392,-9.31992
1421104347960.00,1.291664,-1.7829423,-9.27636
1421104347961.00,1.2048445,-1.7729132,-9.217981
1421104347961.00,1.2118798,-1.8507514,-9.392219
1421104347983.00,1.2617263,-1.9606229,-9.260193
1421104348001.00,1.2064911,-1.9546353,-9.312136
1421104348020.00,1.3105247,-1.9351758,-9.3486595
1421104348040.00,1.2225078,-1.9279907,-9.408535
1421104348060.00,1.25514,-1.821113,-9.235045
1421104348085.00,1.1567944,-1.8609302,-9.215885
1421104348101.00,1.1344908,-1.9896625,-9.379944
1421104348120.00,1.1317964,-1.8474582,-9.315728
1421104348140.00,1.2281959,-1.9080821,-9.257349
1421104348163.00,1.201701,-1.9046392,-9.293873
1421104348184.00,1.2268487,-1.902843,-9.345666
1421104348200.00,1.2154725,-1.8354831,-9.361084
1421104348220.00,1.2650194,-1.8808388,-9.191936
1421104348297.00,1.3419594,-1.9196081,-9.239536
1421104348297.00,1.2160711,-1.8613793,-9.312734
1421104348298.00,1.2584331,-1.9576291,-9.276958
1421104348304.00,1.2407699,-1.9181113,-9.264684
1421104348320.00,1.2129277,-1.9357746,-9.323662
1421104348340.00,1.163231,-1.9145187,-9.257199
1421104348360.00,1.2361294,-1.9312838,-9.342821
1421104348383.00,1.2593312,-1.8420694,-9.350306
1421104348401.00,1.255589,-1.923051,-9.326506
1421104348422.00,1.1593392,-1.9223026,-9.163644
1421104348444.00,1.2320879,-1.8959574,-9.337732
1421104348461.00,1.2570859,-1.9490968,-9.207952
1421104348481.00,1.1508069,-1.8296453,-9.308842
1421104348500.00,1.1999048,-1.848506,-9.1852
1421104348520.00,1.1916718,-1.8408719,-9.272767
1421104348591.00,1.1535013,-1.9440074,-9.1958275
1421104348592.00,1.2470567,-2.0169058,-9.311088
1421104348592.00,1.2496015,-1.9121237,-9.27621
1421104348601.00,1.233435,-1.8776953,-9.2151375
1421104348620.00,1.1927197,-1.9612216,-9.291029
1421104348641.00,1.3346246,-1.8474582,-9.366472
1421104348660.00,1.2425661,-1.9151175,-9.199719
1421104348681.00,1.3340259,-1.853296,-9.230854
1421104348701.00,1.1490107,-1.959126,-9.260044
1421104348721.00,1.2476555,-1.8500029,-9.252708
1421104348741.00,1.2418176,-1.9645147,-9.249865
1421104348765.00,1.2272978,-1.9318826,-9.242829
1421104348781.00,1.2082874,-1.9969972,-9.268576
1421104348802.00,1.2178674,-1.8836828,-9.267827
1421104348820.00,1.3701009,-1.8901194,-9.29522
1421104348840.00,1.1951147,-1.8949095,-9.231303
1421104348860.00,1.2452605,-1.9652632,-9.224567
1421104348881.00,1.1638298,-1.8769469,-9.279203
1421104348938.00,1.2231065,-1.8327887,-9.220376
1421104348939.00,1.2561878,-1.9086809,-9.272018
1421104348942.00,1.2028985,-1.8209633,-9.273665
1421104348961.00,1.2557387,-1.9237994,-9.339977
1421104348980.00,1.1984079,-1.8721569,-9.283395
1421104349000.00,1.1097922,-1.9246975,-9.3012085
1421104349021.00,1.1320958,-1.8851798,-9.267677
1421104349040.00,1.119971,-1.905238,-9.145981
1421104349061.00,1.1831397,-1.8354831,-9.2118435
1421104349080.00,1.2519965,-1.9603235,-9.27636
1421104349101.00,1.2684622,-1.83698,-9.31947
1421104349122.00,1.2470567,-1.959575,-9.267977
1421104349140.00,1.3211527,-1.9570303,-9.312584
1421104349161.00,1.300795,-1.839375,-9.30974
1421104349180.00,1.2663666,-1.9860699,-9.3244095
1421104349204.00,1.198857,-1.9001486,-9.335037
1421104349266.00,1.1672727,-1.8844314,-9.237142
1421104349267.00,1.1900253,-1.8788928,-9.245823
1421104349267.00,1.1521541,-1.781146,-9.296568
1421104349281.00,1.2686119,-1.791774,-9.3012085
1421104349301.00,1.0907817,-1.9181113,-9.299711
1421104349320.00,1.1946657,-1.8529967,-9.343121
1421104349340.00,1.241668,-1.7931212,-9.275761
1421104349361.00,1.1870315,-1.7792001,-9.331146
1421104349385.00,1.1852353,-1.9161654,-9.369316
1421104349402.00,1.2115805,-1.866768,-9.231603
1421104349422.00,1.1801459,-1.7977616,-9.262289
1421104349441.00,1.1927197,-1.905238,-9.226812
1421104349461.00,1.2593312,-1.8398241,-9.409583
1421104349481.00,1.2567865,-1.8440154,-9.362281
1421104349501.00,1.2970527,-1.8062938,-9.309291
1421104349521.00,1.2042458,-1.9609222,-9.337433
1421104349584.00,1.0996133,-1.87066,-9.2747135
1421104349585.00,1.2467574,-1.8284477,-9.316028
1421104349585.00,1.2756473,-1.850901,-9.270672
1421104349601.00,1.1681708,-1.8262024,-9.193132
1421104349621.00,1.232986,-1.8362316,-9.278007
1421104349641.00,1.1698173,-1.8272502,-9.31468
1421104349661.00,1.2178674,-1.9248472,-9.3613825
1421104349681.00,1.2855268,-1.9242485,-9.359886
1421104349702.00,1.2317885,-1.8540444,-9.317973
1421104349722.00,1.2207115,-1.9483484,-9.275761
1421104349747.00,1.3120216,-1.8030007,-9.330098
1421104349761.00,1.3033397,-1.8500029,-9.289832
1421104349781.00,1.23104,-1.8155745,-9.269025
1421104349801.00,1.242117,-1.8875748,-9.243877
1421104349821.00,1.2325369,-1.9360739,-9.373957
1421104349840.00,1.2981006,-1.8193167,-9.309141
1421104349861.00,1.3323793,-1.9261944,-9.31962
1421104349881.00,1.2795392,-1.7835411,-9.27621
1421104349945.00,1.2689112,-1.8829345,-9.297017
1421104349946.00,1.1279045,-1.9284397,-9.263487
1421104349946.00,1.2163706,-1.920656,-9.409733
1421104349960.00,1.2316388,-1.889371,-9.373957
1421104349981.00,1.2410692,-1.9335293,-9.239985
1421104350001.00,1.3365706,-1.9025437,-9.281449
1421104350021.00,1.217119,-1.8414706,-9.370214
1421104350041.00,1.2120296,-1.8724562,-9.381291
1421104350061.00,1.2022998,-1.8321899,-9.457483
1421104350081.00,1.2133768,-1.8030007,-9.341475
1421104350101.00,1.1966116,-1.8684146,-9.389375
1421104350121.00,1.1704161,-1.8137783,-9.267079
1421104350141.00,1.1282039,-1.8431172,-9.227411
1421104350163.00,1.3034893,-1.9088305,-9.275311
1421104350245.00,1.2669654,-1.8914666,-9.38683
1421104350245.00,1.2275972,-1.8760487,-9.305998
1421104350246.00,1.2519965,-1.8702109,-9.2907295
1421104350246.00,1.307531,-1.7661772,-9.295969
1421104350268.00,1.2266991,-1.9077828,-9.4684105
1421104350282.00,1.352737,-1.9223026,-9.3541975
1421104350301.00,1.1418256,-1.8407222,-9.352252
1421104350321.00,1.2407699,-1.9586769,-9.269923
1421104350341.00,1.25993,-1.9709514,-9.267379
1421104350367.00,1.307531,-1.9673588,-9.281749
1421104350381.00,1.2160711,-1.9284397,-9.407487
1421104350408.00,1.1585907,-1.8967057,-9.289233
1421104350421.00,1.267564,-1.9407142,-9.3365345
1421104350441.00,1.2982503,-1.9830762,-9.2521105
1421104350461.00,1.2265494,-1.9646645,-9.210048
1421104350481.00,1.2862751,-1.8803897,-9.2134905
1421104350545.00,1.251248,-1.9182609,-9.335486
1421104350546.00,1.2636722,-1.8606308,-9.251661
1421104350546.00,1.296454,-1.791774,-9.306148
1421104350568.00,1.201252,-1.9127225,-9.349109
1421104350582.00,1.2915143,-1.8965561,-9.23295
1421104350601.00,1.3352234,-1.9917581,-9.296418
1421104350621.00,1.2958553,-1.823059,-9.198522
1421104350641.00,1.131048,-1.8911673,-9.372459
1421104350670.00,1.1934682,-1.8365309,-9.219777
1421104350683.00,1.1445199,-1.9766395,-9.280551
1421104350704.00,1.281036,-1.9255958,-9.307795
1421104350722.00,1.1982582,-1.8488054,-9.376053
1421104350741.00,1.228645,-1.8562899,-9.262139
1421104350761.00,1.133443,-1.8999989,-9.2151375
1421104350781.00,1.2202624,-1.9576291,-9.22307
1421104350801.00,1.163231,-1.9338286,-9.369765
1421104350856.00,1.2576846,-1.8486557,-9.322165
1421104350857.00,1.2136761,-1.8678159,-9.274115
1421104350862.00,1.2573853,-1.821562,-9.29537
1421104350881.00,1.1996055,-1.7142352,-9.300011
1421104350901.00,1.3148657,-1.8279986,-9.187445
1421104350921.00,1.4085709,-1.8236576,-9.2730665
1421104350941.00,1.3114228,-1.843267,-9.32905
1421104350961.00,1.2192147,-1.8694625,-9.304352
1421104350981.00,1.1124866,-1.8839822,-9.398506
1421104351001.00,1.1780503,-1.8553917,-9.353748
1421104351023.00,1.2645704,-1.9013461,-9.379645
1421104351046.00,1.3431569,-1.9646645,-9.371113
1421104351067.00,1.3458513,-1.832639,-9.403146
1421104351090.00,1.2141252,-1.8693128,-9.334739
1421104351102.00,1.25993,-2.0110679,-9.216185
1421104351121.00,1.2374767,-1.8275496,-9.371861
1421104351141.00,1.2271482,-1.8534458,-9.433982
1421104351162.00,1.2225078,-1.780697,-9.333092
1421104351222.00,1.1955638,-1.8121316,-9.224418
1421104351223.00,1.219065,-1.8241067,-9.272468
1421104351223.00,1.1150312,-1.8929635,-9.293574
1421104351247.00,1.2624747,-1.8714083,-9.303453
1421104351262.00,1.2099339,-1.9690055,-9.220975
1421104351281.00,1.2165202,-1.9691551,-9.330847
1421104351301.00,1.280587,-1.8166223,-9.316626
1421104351321.00,1.2394226,-1.9046392,-9.170829
1421104351341.00,1.3895603,-1.955234,-9.3012085
1421104351364.00,1.217119,-1.9354751,-9.33384
1421104351383.00,1.269061,-2.045197,-9.21364
1421104351402.00,1.3256433,-1.9323317,-9.258697
1421104351427.00,1.2367282,-1.8091378,-9.317823
1421104351441.00,1.3027409,-1.956731,-9.242979
1421104351463.00,1.1261083,-1.9092796,-9.32426
1421104351482.00,1.2391232,-1.8787432,-9.362431
1421104351580.00,1.2621753,-1.7842896,-9.378597
1421104351581.00,1.2096345,-1.9431093,-9.392368
1421104351582.00,1.1976595,-1.832639,-9.279503
1421104351582.00,1.1587404,-1.8311421,-9.33399
1421104351583.00,1.167123,-1.8655705,-9.400452
1421104351607.00,1.2413685,-1.8703606,-9.329948
1421104351621.00,1.1991563,-1.9594253,-9.257948
1421104351644.00,1.1976595,-1.9776874,-9.234746
1421104351661.00,1.1421249,-1.8077906,-9.366622
1421104351682.00,1.2103829,-1.8321899,-9.342971
1421104351701.00,1.2168196,-1.7904267,-9.336085
1421104351722.00,1.2302916,-1.8233583,-9.313183
1421104351745.00,1.3016931,-1.8284477,-9.307345
1421104351773.00,1.1575428,-1.8055453,-9.303903
1421104351785.00,1.2063414,-1.7998571,-9.397758
1421104351803.00,1.1850857,-1.9044896,-9.245823
1421104351866.00,1.3163626,-1.924997,-9.41587
1421104351867.00,1.2665162,-1.8092875,-9.233549
1421104351869.00,1.1247611,-1.88024,-9.354347
1421104351883.00,1.1286529,-1.8327887,-9.341025
1421104351906.00,1.181044,-1.8006057,-9.299711
1421104351922.00,1.1581416,-1.997147,-9.365125
1421104351941.00,1.2659175,-1.8919158,-9.285341
1421104351968.00,1.1991563,-1.8871257,-9.370364
1421104351988.00,1.2799883,-1.9470012,-9.42081
1421104352001.00,1.1816428,-1.8974543,-9.356743
1421104352023.00,1.2584331,-1.8862276,-9.308693
1421104352047.00,1.2672647,-1.8586849,-9.287287
1421104352061.00,1.2022998,-1.843267,-9.384734
1421104352081.00,1.1617341,-1.8898201,-9.275761
1421104352101.00,1.1961626,-1.8628762,-9.157806
1421104352121.00,1.189726,-1.8452128,-9.191486
1421104352250.00,1.1220666,-1.8859282,-9.408834
1421104352250.00,1.1633807,-1.9199076,-9.494905
1421104352251.00,1.187331,-1.9935544,-9.236992
1421104352251.00,1.2497511,-1.9203566,-9.241781
1421104352252.00,1.169518,-1.7910255,-9.331295
1421104352253.00,1.0913805,-1.8190173,-9.3558445
1421104352262.00,1.0172845,-2.0070264,-9.327553
1421104352281.00,1.035846,-1.9386187,-9.340426
1421104352301.00,0.9966275,-1.8943107,-9.378897
1421104352322.00,1.0216255,-1.904789,-9.450598
1421104352341.00,1.0162368,-1.9038908,-9.272767
1421104352362.00,1.0577005,-1.9401155,-9.357491
1421104352381.00,1.0822494,-1.8899698,-9.470506
1421104352402.00,1.0976673,-1.8947598,-9.40135
1421104352427.00,1.1220666,-1.83698,-9.349708
1421104352443.00,1.2269984,-2.0806732,-9.230704
1421104352462.00,1.1575428,-1.8979033,-9.280701
1421104352481.00,1.2126284,-1.785038,-9.276509
1421104352502.00,1.3039384,-1.8363812,-9.320967
1421104352562.00,1.2570859,-1.801354,-9.428294
1421104352562.00,1.2702584,-1.7558486,-9.33384
1421104352563.00,1.2144246,-1.771566,-9.429042
1421104352585.00,1.3292358,-1.9044896,-9.400452
1421104352601.00,1.4078224,-1.8892213,-9.425599
1421104352623.00,1.2951068,-1.9324814,-9.4667635
1421104352645.00,1.201701,-1.883084,-9.449699
1421104352661.00,1.2840298,-1.7606387,-9.4049425
1421104352682.00,1.237776,-1.8785934,-9.475446
1421104352702.00,1.3519886,-1.8519489,-9.398506
1421104352721.00,1.4350657,-1.7036073,-9.32411
1421104352746.00,1.3611195,-1.7601897,-9.411079
1421104352762.00,1.3630655,-1.8425184,-9.268426
1421104352783.00,1.2454102,-1.9320323,-9.166339
1421104352847.00,1.3983921,-1.8631755,-9.336684
1421104352847.00,1.2894187,-1.936523,-9.352551
1421104352848.00,1.2192147,-1.8335371,-9.411229
1421104352861.00,1.2069402,-1.658551,-9.373807
1421104352882.00,1.1793975,-1.7227675,-9.471404
1421104352901.00,1.2335848,-1.7964144,-9.31483
1421104352922.00,1.250799,-1.7952168,-9.168734
1421104352944.00,1.3328284,-1.6531622,-9.251661
1421104352966.00,1.4714401,-1.5928377,-9.412277
1421104352981.00,1.5139518,-1.8276993,-9.579928
1421104353001.00,1.5383509,-1.7796493,-9.541458
1421104353021.00,1.607058,-1.8782941,-9.426947
1421104353041.00,1.629212,-1.7055533,-9.265432
1421104353062.00,1.6232245,-1.7661772,-9.368119
1421104353081.00,1.5793657,-1.8260527,-9.274863
1421104353101.00,1.7149837,-2.0511847,-9.163494
1421104353121.00,1.3326787,-1.7131875,-9.266181
1421104353228.00,1.1692185,-1.9053878,-9.632319
1421104353228.00,1.3172607,-1.6161891,-9.727073
1421104353229.00,1.5307169,-1.7274078,-9.604627
1421104353233.00,1.603765,-1.5688875,-9.291179
1421104353234.00,1.5257771,-1.56769,-9.1307125
1421104353242.00,1.5896943,-1.463806,-9.375903
1421104353261.00,1.5702347,-1.5934365,-9.469907
1421104353282.00,1.7378861,-1.4482384,-9.535022
1421104353301.00,1.8649718,-1.5459851,-9.459279
1421104353321.00,1.9239491,-1.7112415,-9.236543
1421104353341.00,1.8676661,-1.5958314,-9.182355
1421104353361.00,1.7515078,-1.627266,-9.156159
1421104353382.00,1.61095,-1.7600399,-9.377399
1421104353405.00,1.3314812,-1.6597486,-9.302405
1421104353421.00,1.4063256,-1.7175283,-9.370214
1421104353496.00,1.3468992,-1.7280066,-9.362131
1421104353496.00,1.2525952,-1.746568,-9.410331
1421104353497.00,1.162782,-1.95239,-9.312734
1421104353502.00,1.3093272,-1.8494041,-9.474248
1421104353521.00,1.2540921,-1.9923569,-9.556577
1421104353541.00,1.3543836,-1.9122734,-9.589957
1421104353562.00,1.3711487,-1.963018,-9.541608
1421104353583.00,1.5462844,-1.898951,-9.380243
1421104353601.00,1.775907,-1.7435743,-9.488468
1421104353621.00,1.6024177,-1.9172131,-9.394764
1421104353643.00,1.6247214,-1.8282981,-9.323811
1421104353662.00,1.273402,-1.8911673,-9.190738
1421104353681.00,0.9063652,-1.8793418,-9.39656
1421104353704.00,0.78347075,-1.88024,-9.528436
1421104353723.00,0.84634,-1.8390756,-9.385483
1421104353744.00,0.7056326,-1.6956738,-9.336085
1421104353762.00,0.8611592,-1.771117,-9.4253
1421104353784.00,1.0883867,-1.8321899,-9.567803
1421104353803.00,1.1258088,-1.8661693,-9.480984
1421104353866.00,1.3620176,-1.9335293,-9.718989
1421104353866.00,1.2482543,-1.7929715,-9.675729
1421104353867.00,1.2424164,-1.8764977,-9.36767
1421104353884.00,1.5290703,-1.9914588,-9.239387
1421104353901.00,1.4859599,-1.9898121,-9.1941805
1421104353922.00,1.470991,-1.9464024,-9.23774
1421104353941.00,1.5941849,-2.08696,-9.397308
1421104353961.00,1.7205222,-2.0767813,-9.372459
1421104353982.00,1.7027092,-1.9318826,-9.418564
1421104354002.00,1.6765137,-2.0606148,-9.065747
1421104354021.00,1.5606546,-2.135609,-9.118288
1421104354042.00,1.5850539,-2.0362158,-9.239237
1421104354069.00,1.5429913,-1.9405646,-9.471254
1421104354083.00,1.4656023,-1.9633173,-9.41557
1421104354144.00,1.3623171,-1.99565,-9.363329
1421104354145.00,1.5305672,-2.0389102,-9.315129
1421104354145.00,1.4852115,-2.0377126,-9.283395
1421104354166.00,1.4338683,-1.9444565,-9.312136
1421104354181.00,1.4434483,-2.0302281,-9.231303
1421104354201.00,1.6173866,-2.0748353,-9.258098
1421104354222.00,1.7006135,-2.072141,-9.370963
1421104354241.00,1.6389418,-1.9179616,-9.292975
1421104354261.00,1.5817608,-1.9899619,-9.239536
1421104354282.00,1.5910414,-1.9702029,-9.1500225
1421104354303.00,1.6555573,-2.103426,-9.221424
1421104354324.00,1.5187417,-2.068249,-9.236543
1421104354341.00,1.5862514,-1.9621197,-9.260193
1421104354362.00,1.6584014,-1.9832258,-9.385483
1421104354382.00,1.4879059,-1.8983524,-9.304352
1421104354401.00,1.6733702,-2.009571,-9.162447
1421104354434.00,1.5331119,-2.055226,-9.159752
1421104354448.00,1.6503181,-2.078877,-9.115145
1421104354554.00,1.7458196,-1.9613713,-9.275162
1421104354555.00,1.7018111,-1.8946102,-9.397308
1421104354555.00,1.7371376,-1.8702109,-9.42515
1421104354556.00,1.5985259,-1.7745597,-9.412726
1421104354556.00,1.4162049,-1.9972966,-9.292077
1421104354571.00,1.4837146,-1.9020946,-9.326955
1421104354581.00,1.4754817,-1.9305354,-9.283844
1421104354606.00,1.5492783,-1.9261944,-9.312136
1421104354622.00,1.647025,-1.8285974,-9.355096
1421104354643.00,1.6416363,-2.0013382,-9.462124
1421104354663.00,1.6998651,-1.9968475,-9.289832
1421104354681.00,1.7646804,-2.1272264,-9.325308
1421104354702.00,1.737437,-1.9721489,-9.225316
1421104354723.00,1.8043479,-1.9818786,-9.265882
1421104354827.00,1.6745677,-1.9101777,-9.339678
1421104354828.00,1.5774198,-1.9124231,-9.301357
1421104354829.00,1.5998731,-1.9574794,-9.217682
1421104354830.00,1.5654446,-1.7859361,-9.328601
1421104354831.00,1.7260606,-1.6498691,-9.474697
1421104354842.00,1.7027092,-1.7040564,-9.490415
1421104354862.00,1.6480728,-1.7962646,-9.421108
1421104354883.00,1.5750247,-1.8529967,-9.361084
1421104354903.00,1.7967137,-1.8038988,-9.367221
1421104354922.00,1.5798148,-1.8428178,-9.297167
1421104354942.00,1.4212945,-1.7031583,-9.258547
1421104354962.00,1.3322296,-1.834585,-9.421408
1421104354981.00,1.2780423,-1.9019449,-9.49221
1421104355001.00,1.3183086,-1.9696041,-9.39147
1421104355022.00,1.348845,-1.9808308,-9.3437195
1421104355048.00,1.1990067,-1.909579,-9.160501
1421104355158.00,1.0470726,-1.9600241,-9.136849
1421104355159.00,1.093027,-1.9103274,-9.273516
1421104355161.00,1.081501,-2.0534298,-9.412577
1421104355162.00,1.1445199,-2.0728893,-9.368269
1421104355162.00,1.1526031,-1.9907103,-9.3839855
1421104355163.00,1.1305989,-1.9809805,-9.373807
1421104355183.00,1.0080038,-1.9314336,-9.474398
1421104355208.00,1.2160711,-2.016307,-9.34357
1421104355221.00,1.1584411,-2.0194504,-9.3558445
1421104355247.00,1.2057426,-1.9758911,-9.432335
1421104355265.00,1.2497511,-2.0230432,-9.470057
1421104355282.00,1.1593392,-2.0248394,-9.472901
1421104355312.00,1.1082953,-1.9898121,-9.495055
1421104355322.00,1.0912308,-1.9691551,-9.499695
1421104355342.00,1.0904824,-1.8922151,-9.386681
1421104355362.00,1.1241623,-2.0143611,-9.255104
1421104355382.00,1.2669654,-2.0588186,-9.148675
1421104355449.00,1.0665321,-2.081272,-9.174421
1421104355450.00,1.0550061,-1.9907103,-9.340277
1421104355450.00,1.2650194,-2.058669,-9.393117
1421104355462.00,1.22146,-2.0550764,-9.276659
1421104355483.00,1.2159215,-1.9561322,-9.347462
1421104355505.00,1.2096345,-1.9660116,-9.215735
1421104355523.00,1.3207036,-2.0806732,-9.239536
1421104355544.00,1.1895763,-2.1993763,-9.292826
1421104355563.00,1.2862751,-2.0242405,-9.320667
1421104355582.00,1.3168117,-2.0667522,-9.522148
1421104355606.00,1.4645544,-2.043251,-9.372161
1421104355623.00,1.3286371,-1.9923569,-9.328451
1421104355653.00,1.4560221,-2.0191512,-9.278605
1421104355674.00,1.4003379,-2.0124152,-9.384135
1421104355792.00,1.5509248,-2.047592,-9.267977
1421104355793.00,1.6771125,-1.8964064,-9.41557
1421104355793.00,1.5187417,-2.0871098,-9.372609
1421104355802.00,1.5548167,-1.8857785,-9.331744
1421104355822.00,1.5338603,-2.0249891,-9.342671
1421104355842.00,1.7301022,-1.9872675,-9.231902
1421104355862.00,1.6227754,-1.9446062,-9.30046
1421104355885.00,1.6371455,-1.99086,-9.335037
1421104355902.00,1.5804135,-2.0263362,-9.220526
1421104355923.00,1.7896783,-1.9702029,-9.359287
1421104355942.00,1.7034576,-2.019301,-9.30989
1421104355962.00,1.6780106,-1.9327807,-9.33414
1421104355982.00,1.8083894,-1.8755996,-9.390872
1421104356002.00,1.8112335,-1.7934206,-9.279653
1421104356026.00,1.963018,-1.8559904,-9.41063
1421104356043.00,1.8781444,-1.8203645,-9.498498
1421104356110.00,1.8080901,-2.0410056,-9.339678
1421104356110.00,2.0733385,-2.0401075,-9.3116865
1421104356111.00,1.9830762,-2.003434,-9.150621
1421104356122.00,1.9699036,-2.028432,-9.119636
1421104356142.00,1.8684146,-2.0161574,-8.962313
1421104356162.00,1.9043399,-2.193838,-9.0165
1421104356184.00,2.054328,-2.2912853,-9.092991
1421104356203.00,1.8468595,-2.2718258,-9.159602
1421104356222.00,1.8967057,-2.1305196,-9.000034
1421104356250.00,1.712439,-2.1884491,-9.064401
1421104356262.00,1.719624,-2.0960913,-9.358838
1421104356283.00,1.7786014,-2.1665945,-9.503587
1421104356305.00,1.8796413,-2.1823118,-9.40135
1421104356322.00,1.8074913,-2.3019133,-9.331894
1421104356342.00,1.7091458,-2.2424867,-9.182954
1421104356607.00,1.4808705,-2.0619621,-9.0093155
1421104356607.00,1.5419436,-2.119293,-9.101823
1421104356608.00,1.6416363,-2.064357,-9.263187
1421104356609.00,1.6263679,-2.1710851,-9.375005
1421104356609.00,1.5105089,-2.3486161,-9.360635
1421104356610.00,1.4212945,-2.1915925,-9.370963
1421104356610.00,1.4099181,-2.2405407,-9.0269785
1421104356611.00,1.3654605,-2.1270766,-9.105266
1421104356612.00,1.3784834,-2.142345,-9.2449255
1421104356613.00,1.2798386,-2.2357507,-9.328451
1421104356613.00,1.4358143,-2.1420455,-9.092691
1421104356614.00,1.6274158,-2.1689897,-8.853639
1421104356615.00,1.5389497,-2.0782783,-8.738678
1421104356661.00,1.5721806,-1.9661614,-9.620943
1421104356662.00,1.3657598,-2.0501368,-9.283994
1421104356667.00,1.3296849,-1.9582279,-9.16574
1421104356682.00,1.323398,-2.0501368,-9.5037365
1421104356707.00,1.1816428,-1.7808467,-9.513766
1421104356831.00,1.0011182,-1.5988252,-9.354347
1421104356832.00,1.0446776,-1.6136444,-9.571096
1421104356832.00,1.1120375,-1.6443306,-9.553583
1421104356833.00,1.3123211,-1.7727635,-9.422007
1421104356835.00,1.3063334,-1.6012203,-9.426048
1421104356835.00,1.3287867,-1.8166223,-9.520502
1421104356844.00,1.5420932,-1.9784359,-9.384135
1421104356866.00,1.572929,-1.9648142,-9.519753
1421104356883.00,1.5172448,-1.8679656,-9.515113
1421104356902.00,1.3885126,-1.9821781,-9.543554
1421104356922.00,1.4572197,-2.0481908,-9.122929
1421104356942.00,1.4682966,-2.036066,-8.993748
1421104356962.00,1.5280224,-1.9806812,-9.26184
1421104356982.00,1.3994398,-1.757196,-9.313782
1421104357002.00,1.5203884,-1.7862355,-9.502689
1421104357131.00,1.49554,-1.7794995,-9.515263
1421104357132.00,1.4421011,-1.833088,-9.595496
1421104357132.00,1.2801379,-1.926943,-9.452992
1421104357133.00,1.4407539,-2.0184028,-9.239985
1421104357134.00,1.4313235,-1.834585,-9.066496
1421104357135.00,1.4365627,-1.8296453,-9.147778
1421104357146.00,1.4844631,-1.857637,-9.361532
1421104357162.00,1.3546829,-1.8970052,-9.320817
1421104357183.00,1.2648697,-1.9911593,-9.485025
1421104357207.00,1.3328284,-2.0706441,-9.448352
1421104357222.00,1.4130615,-1.8883232,-9.303004
1421104357242.00,1.4367124,-1.9673588,-9.250913
1421104357262.00,1.4626085,-1.8886226,-9.329649
1421104357282.00,1.5221846,-1.8836828,-9.297615
1421104357302.00,1.4085709,-1.8799406,-9.363329
1421104357324.00,1.4629079,-2.032623,-9.3309965
1421104357343.00,1.391207,-1.9188597,-9.358389
1421104357421.00,1.4085709,-1.875001,-9.370664
1421104357422.00,1.3865666,-2.0170555,-9.4314375
1421104357423.00,1.3832735,-1.8693128,-9.238788
1421104357423.00,1.4156063,-1.9601738,-9.221274
1421104357449.00,1.3395643,-2.0243902,-9.271569
1421104357469.00,1.3862672,-1.848506,-9.3292
1421104357484.00,1.479673,-1.9814296,-9.311986
1421104357514.00,1.4124627,-1.9712508,-9.174122
1421104357523.00,1.5347584,-1.997147,-9.315129
1421104357544.00,1.4518309,-1.9974463,-9.36752
1421104357562.00,1.4790742,-1.9616706,-9.265882
1421104357582.00,1.6094531,-1.9935544,-9.340277
1421104357602.00,1.5528708,-1.934577,-9.351503
1421104357622.00,1.3386662,-1.940864,-9.314231
1421104357643.00,1.6160394,-1.9901116,-9.356443
1421104357664.00,1.5184424,-1.9652632,-9.2802515
1421104357731.00,1.5039226,-1.993255,-9.304352
1421104357735.00,1.6530125,-1.9106269,-9.30959
1421104357735.00,1.5551162,-1.986968,-9.312584
1421104357748.00,1.7043557,-2.0865111,-9.404344
1421104357762.00,1.633553,-2.0233424,-9.280401
1421104357782.00,1.6613951,-2.0742366,-9.370963
1421104357802.00,1.493594,-2.0553758,-9.342971
1421104357822.00,1.5290703,-2.142345,-9.387728
1421104357842.00,1.533561,-1.8019528,-9.337732
1421104357862.00,1.4188994,-2.011517,-9.223669
1421104357883.00,1.719624,-2.0408561,-9.448502
1421104357905.00,1.6892372,-2.046544,-9.342522
1421104357923.00,1.4699433,-2.1302202,-9.185798
1421104357943.00,1.5432907,-2.098037,-9.26648
1421104357963.00,1.5461348,-1.9217038,-9.18505
1421104357983.00,1.4362633,-2.0215461,-9.254505
1421104358094.00,1.5688875,-1.9854712,-9.316028
1421104358095.00,1.5250287,-2.0320244,-9.22307
1421104358099.00,1.6161891,-1.9381696,-9.216784
1421104358103.00,1.5175443,-1.968257,-9.304052
1421104358104.00,1.5064673,-1.868714,-9.2979145
1421104358106.00,1.5385007,-1.9318826,-9.143287
1421104358132.00,1.4763799,-2.1299207,-9.269923
1421104358143.00,1.4371614,-1.9544857,-9.245523
1421104358164.00,1.5052698,-2.0621119,-9.344618
1421104358190.00,1.4359639,-1.9022442,-9.251661
1421104358204.00,1.606609,-2.045646,-9.178014
1421104358234.00,1.5193405,-2.0755837,-9.221125
1421104358251.00,1.5106586,-1.9670595,-9.31468
1421104358264.00,1.5247293,-1.9475999,-9.293425
1421104358283.00,1.4856606,-2.1532722,-9.235045
1421104358303.00,1.4900016,-2.0481908,-9.364975
1421104358323.00,1.4708414,-1.9221529,-9.227561
1421104358395.00,1.4284794,-2.0116668,-9.260642
1421104358396.00,1.526825,-1.9761904,-9.293724
1421104358397.00,1.515748,-1.9802321,-9.284143
1421104358402.00,1.6203804,-2.080823,-9.277857
1421104358428.00,1.4675483,-2.051035,-9.262289
1421104358443.00,1.6295114,-2.03412,-9.3613825
1421104358463.00,1.5200889,-2.0103195,-9.315129
1421104358482.00,1.4615607,-2.085014,-9.334439
1421104358503.00,1.4730867,-1.9493963,-9.442514
1421104358527.00,1.5120058,-2.0872595,-9.271121
1421104358543.00,1.4760804,-2.0501368,-9.26184
1421104358566.00,1.4394068,-2.0872595,-9.217532
1421104358583.00,1.4142591,-2.1016297,-9.170979
1421104358602.00,1.4908997,-2.0339704,-9.33429
1421104358623.00,1.5504757,-1.9721489,-9.33384
1421104358643.00,1.583557,-2.0680993,-9.263038
1421104358698.00,1.5151492,-2.048041,-9.218131
1421104358699.00,1.4352155,-2.1278253,-9.240135
1421104358704.00,1.4554235,-2.026486,-9.231303
1421104358724.00,1.3904586,-2.0537293,-9.283545
1421104358743.00,1.4858103,-2.0866609,-9.251961
1421104358762.00,1.4563216,-2.210603,-9.3533
1421104358783.00,1.4337186,-2.0592678,-9.266031
1421104358803.00,1.4036311,-2.0098705,-9.24717
1421104358824.00,1.4608122,-2.1174967,-9.192534
1421104358843.00,1.3510904,-2.1275258,-9.251961
1421104358864.00,1.4525794,-2.0143611,-9.341774
1421104358883.00,1.4165044,-1.9794836,-9.271271
1421104358903.00,1.6021184,-2.015858,-9.307795
1421104358924.00,1.5353572,-1.9531385,-9.276509
1421104358943.00,1.6142431,-2.0198996,-9.298813
1421104358964.00,1.5581099,-1.9465522,-9.219927
1421104358983.00,1.4464421,-1.8673668,-9.162746
1421104359050.00,1.499432,-1.9607725,-9.126521
1421104359050.00,1.4823674,-1.9514918,-9.270522
1421104359059.00,1.5033238,-2.0664527,-9.2184305
1421104359066.00,1.4831158,-2.0722907,-9.202264
1421104359083.00,1.531166,-2.0496876,-9.265882
1421104359103.00,1.5834073,-2.039359,-9.281749
1421104359123.00,1.5600559,-2.0390596,-9.339528
1421104359143.00,1.5946339,-2.0236418,-9.201216
1421104359163.00,1.6247214,-1.9380199,-9.246572
1421104359183.00,1.5087126,-2.0929477,-9.320368
1421104359203.00,1.5462844,-2.0133133,-9.32905
1421104359223.00,1.5052698,-2.0881577,-9.253158
1421104359243.00,1.5820601,-2.049987,-9.285641
1421104359264.00,1.6097525,-1.9017951,-9.242081
1421104359283.00,1.5832576,-1.9705024,-9.234447
1421104359358.00,1.5313156,-2.0766315,-9.27591
1421104359359.00,1.4495856,-1.8494041,-9.294472
1421104359359.00,1.5829582,-1.8839822,-9.29522
1421104359363.00,1.5822098,-2.13037,-9.258697
1421104359388.00,1.4211447,-2.0483406,-9.371562
1421104359402.00,1.5245796,-2.0073256,-9.169782
1421104359423.00,1.5007792,-2.0056791,-9.379346
1421104359447.00,1.421444,-2.0859122,-9.329799
1421104359463.00,1.4904506,-2.022145,-9.253457
1421104359483.00,1.5402969,-2.145189,-9.23325
1421104359503.00,1.4528787,-2.0640578,-9.3751545
1421104359522.00,1.4644047,-2.0698957,-9.385034
1421104359543.00,1.4623091,-2.0053797,-9.3293495
1421104359563.00,1.5376025,-2.038461,-9.260492
1421104359583.00,1.5461348,-2.0333717,-9.257349
1421104359602.00,1.5814613,-2.033671,-9.205856
1421104359689.00,1.685046,-2.065405,-9.295819
1421104359689.00,1.6202307,-1.9914588,-9.388776
1421104359690.00,1.5838563,-2.0269349,-9.33384
1421104359690.00,1.5028747,-2.018702,-9.29058
1421104359705.00,1.6082556,-1.906735,-9.244776
1421104359727.00,1.6350499,-1.9779868,-9.385183
1421104359743.00,1.5257771,-2.0865111,-9.323362
1421104359763.00,1.648971,-2.0100203,-9.347611
1421104359791.00,1.5715818,-2.2065613,-9.241482
1421104359809.00,1.5275733,-1.9886147,-9.26184
1421104359823.00,1.5208374,-1.9516416,-9.182355
1421104359843.00,1.5013778,-2.0408561,-9.312734
1421104359870.00,1.4153068,-1.955234,-9.245673
1421104359883.00,1.5422429,-1.9411633,-9.305698
1421104359903.00,1.4822177,-2.0218456,-9.207204
1421104359923.00,1.5144008,-2.1246817,-9.263487
1421104359944.00,1.5202386,-1.9963984,-9.19942
1421104359963.00,1.5368541,-2.1246817,-9.146729
1421104359983.00,1.4510825,-2.1281245,-9.407786
1421104360118.00,1.5188915,-2.1155508,-9.360785
1421104360119.00,1.4983841,-2.1641996,-9.374406
1421104360120.00,1.5377523,-2.0568726,-9.2697735
1421104360120.00,1.510958,-1.993255,-9.26199
1421104360121.00,1.4302757,-2.0901036,-9.282796
1421104360121.00,1.4203963,-2.0338206,-9.373208
1421104360128.00,1.5037729,-2.006727,-9.203012
1421104360143.00,1.6238233,-2.1017792,-9.279353
1421104360267.00,1.4805712,-2.0835173,-9.307495
1421104360267.00,1.475332,-1.9779868,-9.15571
1421104360268.00,1.495091,-2.0074754,-9.188193
1421104360269.00,1.578767,-2.0556753,-9.149424
1421104360269.00,1.5896943,-2.129322,-9.281749
1421104360270.00,1.565744,-1.9420614,-9.302855
1421104360297.00,1.4679973,-2.0628603,-9.375604
1421104360326.00,1.4206957,-1.8880239,-9.307645
1421104360326.00,1.5893948,-2.0338206,-9.259146
1421104360371.00,1.5712825,-2.076931,-9.2747135
1421104360372.00,1.4992822,-1.9083815,-9.257199
1421104360438.00,1.551374,-1.9405646,-9.231453
1421104360439.00,1.491199,-1.9919078,-9.241931
1421104360439.00,1.5428417,-2.064956,-9.333241
1421104360449.00,1.4891034,-2.0718415,-9.294621
1421104360475.00,1.5804135,-2.1257296,-9.291927
1421104360483.00,1.4334192,-2.02454,-9.207354
1421104360507.00,1.5593075,-2.0763323,-9.285042
1421104360523.00,1.5482304,-2.036515,-9.2609415
1421104360543.00,1.6512163,-2.0001407,-9.262289
1421104360563.00,1.5810122,-1.9998413,-9.340127
1421104360583.00,1.558559,-2.0053797,-9.245823
1421104360765.00,1.5501764,-1.9390677,-9.224867
1421104360766.00,1.427282,-2.0616627,-9.277408
1421104360766.00,1.4452446,-2.072141,-9.301806
1421104360767.00,1.5404466,-2.123185,-9.229058
1421104360769.00,1.6097525,-2.0130138,-9.229957
1421104360773.00,1.5763719,-1.9823277,-9.197474
1421104360773.00,1.520538,-1.9990928,-9.228609
1421104360774.00,1.4082714,-2.040407,-9.315578
1421104360774.00,1.4139596,-2.0207977,-9.273815
1421104360793.00,1.5313156,-1.9803817,-9.319321
1421104360803.00,1.5048207,-1.9588265,-9.296718
1421104360823.00,1.4184504,-1.9555335,-9.29552
1421104360843.00,1.5063176,-2.030677,-9.320218
1421104360863.00,1.4820681,-1.8832338,-9.385183
1421104360883.00,1.5603552,-1.9435583,-9.285192
1421104360903.00,1.5084132,-1.9697539,-9.291029
1421104360923.00,1.499881,-2.1415966,-9.374256
1421104360982.00,1.4355148,-2.1035757,-9.2697735
1421104360983.00,1.4744339,-2.0851638,-9.388476
1421104360984.00,1.4639556,-2.0318747,-9.2311535
1421104361009.00,1.4579681,-2.0501368,-9.191187
1421104361023.00,1.3855188,-2.0357666,-9.134904
1421104361043.00,1.558559,-2.0751348,-9.288335
1421104361065.00,1.6087047,-2.0017872,-9.253906
1421104361083.00,1.6250207,-1.9294876,-9.304651
1421104361106.00,1.651366,-1.9959494,-9.318422
1421104361123.00,1.4497353,-1.9094293,-9.221125
1421104361143.00,1.5188915,-2.017804,-9.337433
1421104361164.00,1.4882053,-1.9676583,-9.276659
1421104361183.00,1.4659016,-2.0839663,-9.265283
1421104361203.00,1.4268329,-1.9944525,-9.285491
1421104361223.00,1.4186,-1.9809805,-9.272018
1421104361243.00,1.3539345,-1.9284397,-9.290879
1421104361310.00,1.5825092,-2.1426444,-9.283844
1421104361311.00,1.6624429,-2.0417542,-9.451345
1421104361315.00,1.491199,-2.0984862,-9.354946
1421104361324.00,1.526825,-2.0689974,-9.339229
1421104361343.00,1.5124549,-2.0712428,-9.307645
1421104361363.00,1.4891034,-2.0706441,-9.308543
1421104361383.00,1.5247293,-2.0728893,-9.279952
1421104361404.00,1.5187417,-2.0695963,-9.261391
1421104361423.00,1.497935,-1.9874171,-9.224867
1421104361443.00,1.5227834,-2.0803738,-9.210347
1421104361463.00,1.4690452,-2.095642,-9.248817
1421104361484.00,1.3771362,-2.0754342,-9.215735
1421104361503.00,1.4958394,-2.1670437,-9.284892
1421104361523.00,1.4227912,-2.0085232,-9.290131
1421104361543.00,1.4712905,-1.9564316,-9.346863
1421104361563.00,1.4549744,-2.0954924,-9.309141
1421104361583.00,1.4647042,-2.10627,-9.304951
1421104361639.00,1.5417938,-2.0113673,-9.36258
1421104361639.00,1.6170872,-2.145189,-9.275611
1421104361645.00,1.5247293,-1.995201,-9.291328
1421104361663.00,1.5028747,-1.8700612,-9.212742
1421104361683.00,1.4693445,-2.039359,-9.311836
1421104361704.00,1.3513898,-1.9664607,-9.193731
1421104361723.00,1.4882053,-1.9739451,-9.163644
1421104361743.00,1.4835649,-1.8724562,-9.215586
1421104361772.00,1.486858,-1.9736458,-9.225915
1421104361783.00,1.5367044,-2.0160077,-9.2118435
1421104361803.00,1.515299,-2.1564157,-9.206755
1421104361823.00,1.4766792,-1.9402652,-9.210048
1421104361843.00,1.5385007,-2.043251,-9.226812
1421104361863.00,1.489253,-1.9693048,-9.323811
1421104361883.00,1.545087,-1.9737954,-9.301059
1421104361955.00,1.499881,-1.911076,-9.240584
1421104361955.00,1.5519726,-2.0773802,-9.195079
1421104361956.00,1.5227834,-2.121688,-9.259894
1421104361963.00,1.4808705,-1.9800824,-9.295969
1421104361983.00,1.4883549,-1.9886147,-9.168135
1421104362003.00,1.5364051,-1.834585,-9.272917
1421104362023.00,1.554667,-1.9465522,-9.18939
1421104362043.00,1.4314733,-1.9788849,-9.23295
1421104362063.00,1.4820681,-1.859134,-9.342223
1421104362084.00,1.4085709,-2.0113673,-9.240884
1421104362103.00,1.5383509,-2.047592,-9.253607
1421104362123.00,1.4697936,-2.0227437,-9.36782
1421104362143.00,1.429228,-1.9255958,-9.382639
1421104362163.00,1.576821,-2.069147,-9.317374
1421104362183.00,1.5147002,-2.031276,-9.24238
1421104362203.00,1.579216,-1.9785855,-9.20406
1421104362226.00,1.4220428,-2.0175047,-9.22337
1421104362280.00,1.4817686,-2.0025358,-9.1748705
1421104362281.00,1.5343094,-2.0005898,-9.32905
1421104362286.00,1.447939,-2.0374131,-9.28115
1421104362307.00,1.4400055,-2.0616627,-9.331146
1421104362327.00,1.5452367,-2.0935464,-9.285042
1421104362344.00,1.4844631,-2.100582,-9.318422
1421104362363.00,1.5561639,-1.9351758,-9.284293
1421104362384.00,1.5347584,-2.0315752,-9.294921
1421104362403.00,1.4609619,-2.127376,-9.318572
1421104362424.00,1.5441889,-2.0785775,-9.293873
1421104362447.00,1.4961388,-1.9926562,-9.280401
1421104362472.00,1.4278808,-1.972598,-9.289682
1421104362486.00,1.4132112,-2.0737875,-9.210048
1421104362504.00,1.4730867,-2.0113673,-9.389524
1421104362523.00,1.5521224,-2.012864,-9.239536
1421104362599.00,1.4054275,-2.032623,-9.292526
1421104362600.00,1.4124627,-1.9065852,-9.309441
1421104362600.00,1.4335688,-2.0468435,-9.250314
1421104362608.00,1.4662011,-2.0429516,-9.32905
1421104362623.00,1.3630655,-2.0266356,-9.344768
1421104362643.00,1.3982424,-2.047143,-9.316326
1421104362663.00,1.3701009,-2.0568726,-9.338481
1421104362683.00,1.4132112,-2.0667522,-9.359886
1421104362703.00,1.5287709,-2.0200493,-9.298663
1421104362723.00,1.4177018,-2.0255878,-9.281599
1421104362743.00,1.4626085,-1.9580781,-9.256302
1421104362764.00,1.4317726,-2.0107687,-9.238638
1421104362783.00,1.5238311,-2.0155587,-9.281749
1421104362803.00,1.5507752,-2.0544777,-9.220975
1421104362823.00,1.4802718,-2.0588186,-9.31947
1421104362843.00,1.4206957,-2.0911515,-9.2569
1421104362863.00,1.507066,-2.0914507,-9.226364
1421104362933.00,1.5742763,-2.085014,-9.2063055
1421104362934.00,1.5003301,-2.012565,-9.195079
1421104362934.00,1.5682887,-2.0917501,-9.374556
1421104362944.00,1.493594,-2.0507355,-9.310339
1421104362963.00,1.472937,-2.1628523,-9.2747135
1421104362983.00,1.4365627,-2.070195,-9.277108
1421104363004.00,1.6667839,-2.0996838,-9.266331
1421104363023.00,1.7561481,-2.0660038,-9.1886425
1421104363043.00,1.665287,-2.0285816,-9.235195
1421104363063.00,1.6660354,-2.1031265,-9.160501
1421104363083.00,1.7545015,-2.119742,-9.19448
1421104363104.00,1.9666104,-2.1296215,-9.216185
1421104363123.00,1.7877324,-2.0130138,-9.240435
1421104363144.00,1.6283139,-2.0215461,-9.238788
1421104363170.00,1.4858103,-1.9842737,-9.267677
1421104363183.00,1.6869919,-2.1354592,-9.052276
1421104363203.00,1.506617,-1.9857706,-9.191037
1421104363270.00,1.4359639,-2.1104612,-9.27591
1421104363271.00,1.4923966,-2.0200493,-9.381142
1421104363272.00,1.4862593,-2.095193,-9.337133
1421104363283.00,1.5060182,-2.1570144,-9.250913
1421104363304.00,1.3659096,-2.070195,-9.332493
1421104363323.00,1.4409037,-2.2224283,-9.226962
1421104363344.00,1.5646962,-2.129322,-9.216933
1421104363363.00,1.520987,-2.17363,-9.241931
1421104363383.00,1.5337106,-2.039359,-9.245075
1421104363404.00,1.6886384,-1.968257,-9.327105
1421104363423.00,1.5892452,-1.9727477,-9.227711
1421104363443.00,1.6810043,-1.9727477,-9.298663
1421104363465.00,1.5353572,-1.935026,-9.340426
1421104363486.00,1.5840061,-1.9757414,-9.300759
1421104363505.00,1.7700691,-2.0489392,-9.256451
1421104363553.00,1.7127384,-2.140399,-9.260492
1421104363554.00,1.7491127,-2.0679498,-9.172326
1421104363563.00,1.5742763,-2.0405567,-9.26184
1421104363583.00,1.6305592,-1.9718496,-9.2802515
1421104363604.00,1.7060024,-1.99565,-9.280551
1421104363625.00,1.6280146,-2.0722907,-9.303453
1421104363643.00,1.7233663,-2.0070264,-9.271569
1421104363663.00,1.6497194,-1.9483484,-9.196575
1421104363683.00,1.5503261,-1.9606229,-9.18505
1421104363704.00,1.6560063,-1.9505937,-9.2118435
1421104363723.00,1.6685802,-2.0007393,-9.313782
1421104363744.00,1.6853453,-2.0676503,-9.248668
1421104363763.00,1.549877,-2.1119583,-9.172326
1421104363783.00,1.5697856,-2.2354515,-9.197623
1421104363804.00,1.6298108,-2.12543,-9.231902
1421104363825.00,1.6501684,-2.100582,-9.244626
1421104363857.00,1.4768289,-1.8980529,-9.290131
1421104363946.00,1.5980768,-2.0308268,-9.178613
1421104363947.00,1.6754658,-2.0537293,-9.2134905
1421104363947.00,1.6356486,-1.9883152,-9.383686
1421104363948.00,1.6202307,-1.877845,-9.192833
1421104363948.00,1.5557148,-2.0377126,-9.293873
1421104363970.00,1.4019846,-2.0712428,-9.1765175
1421104363984.00,1.5769707,-2.0595672,-9.271869
1421104364003.00,1.5575111,-1.9237994,-9.190887
1421104364030.00,1.5769707,-2.0474424,-9.212143
1421104364044.00,1.6398399,-2.1429436,-9.286987
1421104364064.00,1.6259189,-2.0707939,-9.228609
1421104364083.00,1.5129039,-1.9477496,-9.202264
1421104364105.00,1.4904506,-2.029779,-9.23295
1421104364124.00,1.6302599,-2.1820126,-9.245823
1421104364146.00,1.6637901,-1.9100281,-9.246422
1421104364165.00,1.6810043,-2.1004322,-9.194929
1421104364187.00,1.8157241,-2.0874093,-9.207503
1421104364253.00,1.6931291,-1.9851718,-9.2730665
1421104364254.00,1.7272582,-1.973047,-9.170679
1421104364255.00,1.6789087,-2.0266356,-9.234596
1421104364264.00,1.597029,-2.0422032,-9.202414
1421104364284.00,1.6317568,-2.0420535,-9.224567
1421104364304.00,1.585952,-2.063908,-9.300759
1421104364323.00,1.6554075,-2.0130138,-9.231303
1421104364345.00,1.6158898,-2.233206,-9.236543
1421104364373.00,1.5422429,-2.036066,-9.423654
1421104364383.00,1.5899936,-1.9934047,-9.2890835
1421104364403.00,1.5808625,-1.9217038,-9.2521105
1421104364423.00,1.5024257,-2.074087,-9.250164
1421104364444.00,1.4853612,-1.9821781,-9.109457
1421104364464.00,1.669628,-2.03412,-9.230704
1421104364483.00,1.6471747,-2.036066,-9.261241
1421104364503.00,1.6349002,-2.113455,-9.23295
1421104364570.00,1.6982186,-2.0429516,-9.210197
1421104364571.00,1.5977774,-2.0965402,-9.346414
1421104364572.00,1.7425264,-1.9407142,-9.186097
1421104364584.00,1.6485219,-2.1659958,-9.259595
1421104364604.00,1.7000148,-2.0243902,-9.254805
1421104364623.00,1.7048049,-2.0589683,-9.232052
1421104364644.00,1.4983841,-2.0426524,-9.221424
1421104364664.00,1.6774118,-1.9996916,-9.231902
1421104364684.00,1.5961308,-2.124532,-9.19942
1421104364703.00,1.499432,-2.026486,-9.307046
1421104364724.00,1.5515236,-1.9905607,-9.249565
1421104364743.00,1.5789167,-2.1050725,-9.263337
1421104364765.00,1.486409,-2.0448976,-9.175619
1421104364785.00,1.612896,-2.0224442,-9.178762
1421104364805.00,1.6063097,-2.129322,-9.298064
1421104364825.00,1.5777191,-2.036515,-9.298214
1421104364946.00,1.6504679,-2.0064275,-9.21888
1421104364946.00,1.5004797,-2.0459454,-9.270522
1421104364947.00,1.5480808,-2.1085153,-9.194031
1421104364947.00,1.5259268,-2.0169058,-9.258397
1421104364948.00,1.6802559,-1.9260448,-9.147926
1421104364949.00,1.6338524,-2.0621119,-9.198671
1421104364968.00,1.5244299,-1.9016455,-9.235495
1421104364984.00,1.6956738,-2.01481,-9.1814575
1421104365004.00,1.6560063,-2.0285816,-9.347611
1421104365024.00,1.6980689,-2.0071762,-9.263337
1421104365045.00,1.579216,-2.0369642,-9.257499
1421104365064.00,1.6027172,-2.0595672,-9.203462
1421104365083.00,1.6703764,-1.9860699,-9.272018
1421104365104.00,1.7886305,-2.10627,-9.183702
1421104365125.00,1.606609,-2.1239333,-9.287137
1421104365144.00,1.6853453,-2.0068767,-9.277108
1421104365207.00,1.6009209,-2.090403,-9.332343
1421104365208.00,1.6462766,-1.9252963,-9.312584
1421104365208.00,1.6597486,-1.9929557,-9.254056
1421104365234.00,1.5263759,-2.0830681,-9.19927
1421104365248.00,1.6078066,-2.0583696,-9.142388
1421104365264.00,1.6703764,-2.146237,-9.183702
1421104365284.00,1.5980768,-2.2046156,-9.1608
1421104365305.00,1.6859441,-2.0800745,-9.196575
1421104365327.00,1.6485219,-2.0761826,-9.231603
1421104365343.00,1.6075072,-2.073039,-9.277707
1421104365364.00,1.6253201,-2.0974383,-9.26199
1421104365384.00,1.6473243,-2.073039,-9.389075
1421104365403.00,1.6456778,-1.8824854,-9.24762
1421104365424.00,1.5828085,-2.0266356,-9.167087
1421104365444.00,1.6808547,-1.9974463,-9.296867
1421104365465.00,1.6572038,-1.986519,-9.2554035
1421104365485.00,1.6664845,-2.0190015,-9.195378
1421104365558.00,1.5307169,-1.9691551,-9.18505
1421104365559.00,1.6072078,-2.0862117,-9.103169
1421104365559.00,1.5872992,-1.9993923,-9.19927
1421104365565.00,1.4952407,-2.048041,-9.167536
1421104365584.00,1.4630575,-2.0416045,-9.226065
1421104365603.00,1.5142511,-2.0327728,-9.193432
1421104365625.00,1.6634908,-1.9478993,-9.235195
1421104365644.00,1.7076489,-2.1472847,-9.26154
1421104365667.00,1.6443306,-2.0104692,-9.139245
1421104365686.00,1.6381934,-1.9863694,-9.322464
1421104365704.00,1.6155903,-2.0851638,-9.307046
1421104365724.00,1.6919316,-2.0416045,-9.177266
1421104365743.00,1.6357983,-2.0689974,-9.224717
1421104365765.00,1.5314653,-1.9481987,-9.229957
1421104365784.00,1.5012282,-2.0188518,-9.103319
1421104365806.00,1.6226257,-2.0588186,-9.288784
1421104365901.00,1.5669415,-2.0486398,-9.365724
1421104365902.00,1.6413368,-2.0835173,-9.186397
1421104365903.00,1.6057109,-1.959575,-9.281749
1421104365904.00,1.700913,-2.1251307,-9.307944
1421104365904.00,1.6913328,-2.065854,-9.344019
1421104365924.00,1.6895366,-2.0161574,-9.207054
1421104365944.00,1.6530125,-2.0356169,-9.294172
1421104365964.00,1.5432907,-2.082769,-9.10766
1421104365983.00,1.5865507,-2.020648,-9.245523
1421104366004.00,1.6045134,-2.0056791,-9.288485
1421104366024.00,1.7301022,-2.040407,-9.276659
1421104366044.00,1.7597406,-2.0255878,-9.258397
1421104366064.00,1.5841557,-2.0673509,-9.2134905
1421104366085.00,1.5696359,-2.0329225,-9.275611
1421104366104.00,1.5432907,-2.0595672,-9.2063055
1421104366124.00,1.5733781,-2.055226,-9.35315
1421104366144.00,1.664838,-2.094744,-9.317075
1421104366214.00,1.6612455,-1.9748433,-9.274414
1421104366215.00,1.6866925,-2.0013382,-9.189091
1421104366216.00,1.5916401,-2.0507355,-9.244327
1421104366224.00,1.6387922,-1.9495459,-9.443711
1421104366244.00,1.64463,-2.0761826,-9.224867
1421104366264.00,1.5370038,-1.9838246,-9.151669
1421104366284.00,1.6232245,-2.0252883,-9.243877
1421104366304.00,1.5736775,-2.1321661,-9.263786
1421104366326.00,1.5730788,-1.9737954,-9.262439
1421104366345.00,1.6408877,-1.9839743,-9.176368
1421104366364.00,1.6862434,-2.0619621,-9.34342
1421104366384.00,1.5530205,-2.0354671,-9.1307125
1421104366404.00,1.6631913,-2.0541782,-9.167386
1421104366424.00,1.5838563,-2.2001247,-9.263337
1421104366446.00,1.5067667,-2.0463946,-9.267677
1421104366465.00,1.5639478,-1.9904109,-9.302405
1421104366485.00,1.5036232,-2.0429516,-9.293125
1421104366505.00,1.5440391,-2.055825,-9.233399
1421104366526.00,1.6362474,-1.9237994,-9.123078
1421104366545.00,1.6185842,-2.015858,-9.287137
1421104366617.00,1.5576608,-1.9794836,-9.229957
1421104366618.00,1.5929874,-2.0564237,-9.177116
1421104366618.00,1.5943346,-1.9648142,-9.246721
1421104366628.00,1.5895445,-2.0425026,-9.2521105
1421104366644.00,1.7130377,-2.0805235,-9.25256
1421104366665.00,1.5796651,-1.9784359,-9.202563
1421104366684.00,1.6245717,-1.9532881,-9.156459
1421104366704.00,1.6869919,-1.9631675,-9.154963
1421104366726.00,1.7074993,-2.0145109,-9.168434
1421104366744.00,1.5908917,-2.10627,-9.124576
1421104366768.00,1.6078066,-2.066902,-9.287736
1421104366784.00,1.6001724,-2.0655546,-9.357192
1421104366852.00,1.5441889,-2.0800745,-9.226065
1421104366853.00,1.6816031,-2.0722907,-9.25256
1421104366854.00,1.6075072,-2.022594,-9.183702
1421104366864.00,1.5810122,-1.911076,-9.207653
1421104366884.00,1.6341518,-1.9374211,-9.185648
1421104366904.00,1.5163467,-1.9796333,-9.190588
1421104366924.00,1.627266,-2.0261865,-9.1114025
1421104366944.00,1.6194823,-2.020199,-9.25256
1421104366964.00,1.6410375,-2.0124152,-9.196426
1421104366984.00,1.5992743,-2.0595672,-9.248966
1421104367004.00,1.5952327,-1.9859203,-9.17502
1421104367024.00,1.6284636,-1.9953506,-9.225017
1421104367044.00,1.6944764,-1.9955003,-9.119636
1421104367064.00,1.6205301,-2.0258873,-9.187594
1421104367084.00,1.5194902,-2.0386107,-9.159303
1421104367104.00,1.5967296,-1.9857706,-9.13191
1421104367153.00,1.6563057,-1.9384689,-9.162895
1421104367154.00,1.6679814,-2.0124152,-9.129664
1421104367164.00,1.6871415,-2.0374131,-9.169931
1421104367184.00,1.5822098,-2.0218456,-9.188193
1421104367205.00,1.5745757,-2.0184028,-9.176218
1421104367224.00,1.6420853,-2.0453467,-9.058263
1421104367245.00,1.7495618,-1.9351758,-9.067544
1421104367264.00,1.6649877,-1.9881656,-9.1025715
1421104367285.00,1.5512242,-2.0031345,-9.091195
1421104367304.00,1.609004,-2.0101697,-9.080716
1421104367324.00,1.6033158,-1.88024,-9.315578
1421104367347.00,1.5126045,-2.105372,-9.222771
1421104367364.00,1.5477813,-1.9742446,-9.335636
1421104367384.00,1.5504757,-2.095193,-9.19448
1421104367405.00,1.6504679,-2.0501368,-9.270372
1421104367424.00,1.6796571,-2.1392014,-9.192235
1421104367494.00,1.627266,-2.0447478,-9.16574
1421104367495.00,1.6057109,-2.0676503,-9.02129
1421104367495.00,1.5711328,-2.0917501,-9.125324
1421104367504.00,1.5317646,-2.0968397,-9.17038
1421104367524.00,1.5908917,-2.0516336,-9.275761
1421104367544.00,1.6392412,-2.1074674,-9.173524
1421104367564.00,1.6399896,-2.1050725,-9.162447
1421104367584.00,1.5280224,-2.1426444,-9.145981
1421104367604.00,1.5465839,-2.0145109,-9.173524
1421104367624.00,1.6760646,-1.9993923,-9.192684
1421104367649.00,1.5997233,-1.9399658,-9.103619
1421104367664.00,1.5299684,-2.0305276,-9.284593
1421104367684.00,1.6718733,-1.9453546,-9.407786
1421104367704.00,1.6304096,-1.9160156,-9.219478
1421104367724.00,1.6064594,-1.9854712,-9.1886425
1421104367745.00,1.71678,-2.158212,-9.12233
1421104367764.00,1.5861017,-2.0624113,-9.142388
1421104367844.00,1.6365467,-2.013463,-9.173674
1421104367845.00,1.5612533,-2.1502786,-9.191187
1421104367845.00,1.4441968,-2.0933967,-9.131611
1421104367846.00,1.64942,-2.071093,-9.181606
1421104367868.00,1.5492783,-2.0309765,-9.16065
1421104367884.00,1.599424,-2.0823197,-9.141789
1421104367904.00,1.5723304,-2.0832179,-9.124126
1421104367924.00,1.4952407,-2.0589683,-9.133856
1421104367944.00,1.5777191,-2.098636,-9.141191
1421104367964.00,1.5922389,-2.0450473,-9.248518
1421104367984.00,1.5624509,-2.0439994,-9.179811
1421104368004.00,1.7064514,-1.956731,-9.18505
1421104368024.00,1.5540683,-2.0416045,-9.17532
1421104368044.00,1.6667839,-1.9722986,-9.178463
1421104368064.00,1.5920892,-2.063459,-9.149873
1421104368085.00,1.6096028,-2.0914507,-9.225017
1421104368152.00,1.5904427,-2.1625528,-9.171577
1421104368153.00,1.5684384,-2.0722907,-9.103918
1421104368154.00,1.4898518,-2.0731888,-9.171278
1421104368164.00,1.557062,-1.9622694,-9.148525
1421104368184.00,1.735042,-2.1315675,-9.253307
1421104368204.00,1.6043637,-2.1275258,-9.24762
1421104368225.00,1.5826589,-2.087559,-9.257948
1421104368244.00,1.5980768,-1.9947519,-9.14643
1421104368264.00,1.7145346,-2.0338206,-9.231303
1421104368284.00,1.5551162,-2.1712348,-9.205557
1421104368304.00,1.5263759,-2.0302281,-9.106762
1421104368324.00,1.5898439,-2.1368065,-9.249865
1421104368344.00,1.5506254,-1.9824774,-9.294621
1421104368364.00,1.5723304,-2.0374131,-9.254505
1421104368385.00,1.547482,-1.9832258,-9.221424
1421104368459.00,1.6408877,-2.1308188,-9.198072
1421104368459.00,1.617686,-2.1094134,-9.153465
1421104368460.00,1.6295114,-2.1159997,-9.225915
1421104368466.00,1.6218773,-2.0651057,-9.115145
1421104368484.00,1.5611037,-1.9598744,-9.288634
1421104368504.00,1.6036153,-1.9981947,-9.298513
1421104368525.00,1.6479231,-2.08217,-9.315728
1421104368544.00,1.6525635,-2.0968397,-9.154963
1421104368564.00,1.6560063,-2.0698957,-9.109307
1421104368584.00,1.679208,-2.0136127,-9.156609
1421104368607.00,1.6521144,-2.004781,-9.165141
1421104368624.00,1.6732205,-2.0231926,-9.125922
1421104368644.00,1.6277151,-2.1862037,-9.135802
1421104368664.00,1.6384927,-2.0356169,-9.334439
1421104368684.00,1.5522721,-2.027833,-9.231303
1421104368705.00,1.5627502,-2.1104612,-9.282646
1421104368724.00,1.5263759,-1.9285895,-9.212742
1421104368789.00,1.6226257,-2.0728893,-9.238338
1421104368790.00,1.5027251,-2.0652552,-9.286987
1421104368791.00,1.6200811,-2.1517754,-9.140143
1421104368805.00,1.5983762,-2.034569,-9.216484
1421104368825.00,1.6375946,-2.0425026,-9.167236
1421104368847.00,1.6506175,-2.0555255,-9.169931
1421104368864.00,1.592688,-2.1290226,-9.179361
1421104368885.00,1.5796651,-2.076931,-9.227711
1421104368907.00,1.6473243,-1.9696041,-9.206006
1421104368925.00,1.624871,-2.103875,-9.241183
1421104368944.00,1.5190412,-2.0428019,-9.24732
1421104368964.00,1.628763,-2.082769,-9.21888
1421104368985.00,1.6456778,-1.9633173,-9.158705
1421104369005.00,1.5763719,-2.025438,-9.214539
1421104369024.00,1.4699433,-1.9736458,-9.209
1421104369045.00,1.6690292,-2.122586,-9.209748
1421104369106.00,1.6741186,-2.043251,-9.205257
1421104369106.00,1.6438816,-2.061064,-9.244327
1421104369107.00,1.6169375,-2.0752845,-9.242979
1421104369128.00,1.7456698,-2.0320244,-9.315429
1421104369144.00,1.6323555,-2.0203485,-9.221873
1421104369164.00,1.7318985,-1.9916084,-9.258098
1421104369185.00,1.6510665,-2.093696,-9.389524
1421104369204.00,1.5569124,-2.1487815,-9.285192
1421104369226.00,1.5684384,-2.0989351,-9.207503
1421104369258.00,1.7028589,-2.0508852,-9.271869
1421104369264.00,1.6793578,-2.006727,-9.239087
1421104369284.00,1.6798068,-2.0944445,-9.149274
1421104369305.00,1.6615448,-2.14474,-9.233399
1421104369324.00,1.5660434,-2.1396506,-9.1853485
1421104369349.00,1.5735278,-2.0698957,-9.2747135
1421104369364.00,1.5685881,-2.093696,-9.236243
1421104369384.00,1.5476317,-2.0680993,-9.325907
1421104369450.00,1.5468832,-1.9592757,-9.268875
1421104369450.00,1.5446379,-2.095642,-9.325008
1421104369451.00,1.7310004,-2.0619621,-9.258247
1421104369464.00,1.5919396,-2.095193,-9.238788
1421104369485.00,1.579216,-2.0335212,-9.33384
1421104369504.00,1.7720151,-2.0224442,-9.212442
1421104369524.00,1.6230748,-2.1496797,-9.197174
1421104369545.00,1.6428337,-1.9972966,-9.280401
1421104369567.00,1.5682887,-2.022145,-9.244476
1421104369589.00,1.5639478,-1.9904109,-9.2256155
1421104369606.00,1.5542179,-1.9401155,-9.217981
1421104369624.00,1.6410375,-1.9534378,-9.127419
1421104369644.00,1.5910414,-2.0544777,-9.212143
1421104369665.00,1.660946,-1.9154168,-9.236992
1421104369687.00,1.7113911,-2.1550684,-9.299412
1421104369705.00,1.5799644,-2.0089724,-9.288784
1421104369725.00,1.6790584,-2.092349,-9.24717
1421104369805.00,1.608555,-2.1624033,-9.203312
1421104369806.00,1.5867004,-1.9742446,-9.28594
1421104369806.00,1.6284636,-2.0031345,-9.270073
1421104369807.00,1.6404387,-2.0607646,-9.229358
1421104369829.00,1.7181271,-1.9712508,-9.294921
1421104369845.00,1.547033,-2.0103195,-9.229807
1421104369865.00,1.5347584,-1.9878662,-9.277108
1421104369884.00,1.5880476,-1.9742446,-9.269175
1421104369908.00,1.5374528,-2.1137545,-9.222023
1421104369930.00,1.606609,-1.934577,-9.267529
1421104369946.00,1.5443386,-1.9645147,-9.251811
1421104369965.00,1.5814613,-1.9303857,-9.359437
1421104369985.00,1.5693365,-1.9874171,-9.215586
1421104370004.00,1.5612533,-2.0444486,-9.11754
1421104370025.00,1.5784676,-2.086062,-9.13191
1421104370044.00,1.5461348,-2.0886068,-9.239686
1421104370065.00,1.6269667,-2.0913012,-9.26693
1421104370085.00,1.6753162,-2.0670516,-9.198072
1421104370166.00,1.6262183,-2.074985,-9.248668
1421104370166.00,1.5793657,-1.9910097,-9.263187
1421104370167.00,1.6239729,-1.9802321,-9.2416315
1421104370167.00,1.6464262,-1.9449055,-9.251062
1421104370187.00,1.6727715,-2.0457957,-9.267827
1421104370205.00,1.6175363,-2.0833676,-9.174421
1421104370225.00,1.6584014,-2.1001327,-9.228909
1421104370245.00,1.6232245,-2.0396585,-9.342223
1421104370265.00,1.4696438,-2.037114,-9.3083935
1421104370285.00,1.4913487,-2.1249812,-9.244177
1421104370305.00,1.5739769,-2.1767733,-9.201066
1421104370325.00,1.5745757,-2.1112096,-9.201515
1421104370345.00,1.6509169,-2.1246817,-9.229208
1421104370366.00,1.5111077,-2.1670437,-9.28579
1421104370427.00,1.6223264,-2.0104692,-9.325907
1421104370427.00,1.7130377,-2.036515,-9.2697735
1421104370428.00,1.612896,-2.001488,-9.137598
1421104370448.00,1.6319064,-2.05328,-9.19433
1421104370465.00,1.5968792,-2.018253,-9.451196
1421104370484.00,1.6197816,-2.128424,-9.2625885
1421104370507.00,1.593137,-2.073039,-9.181906
1421104370525.00,1.5004797,-2.0845652,-9.270822
1421104370545.00,1.7600399,-2.1797671,-9.125772
1421104370565.00,1.581611,-2.0763323,-9.280701
1421104370584.00,1.6646882,-2.0309765,-9.2087
1421104370604.00,1.5685881,-1.9935544,-9.268276
1421104370626.00,1.6200811,-1.9284397,-9.279203
1421104370645.00,1.5581099,-1.9196081,-9.149124
1421104370666.00,1.515299,-2.0559745,-9.163045
1421104370686.00,1.5365547,-2.082769,-9.241781
1421104370755.00,1.6555573,-2.0728893,-9.261391
1421104370756.00,1.597478,-2.0957918,-9.170979
1421104370756.00,1.6238233,-2.0236418,-9.269025
1421104370766.00,1.6031662,-2.019301,-9.29522
1421104370785.00,1.5510745,-2.055825,-9.189091
1421104370805.00,1.6769627,-2.1564157,-9.308244
1421104370826.00,1.635499,-2.0628603,-9.333241
1421104370846.00,1.5837066,-2.0695963,-9.321116
1421104370867.00,1.64942,-2.0981867,-9.277707
1421104370885.00,1.567241,-2.1564157,-9.200317
1421104370905.00,1.595083,-2.0417542,-9.193881
1421104370925.00,1.615291,-2.1315675,-9.270223
1421104370945.00,1.7007632,-2.0478914,-9.29522
1421104370964.00,1.7061521,-2.0613635,-9.351803
1421104370985.00,1.6034656,-2.0838168,-9.1395445
1421104371005.00,1.7121396,-2.1242325,-9.217233
1421104371024.00,1.6616945,-2.0595672,-9.241781
1421104371099.00,1.551823,-2.0651057,-9.26678
1421104371100.00,1.681154,-1.9926562,-9.245075
1421104371100.00,1.7119899,-2.1544697,-9.2890835
1421104371107.00,1.6296611,-2.0272343,-9.218131
1421104371125.00,1.659,-2.0517833,-9.227411
1421104371145.00,1.5813117,-2.1333637,-9.110953
1421104371165.00,1.6883391,-2.036515,-9.239985
1421104371185.00,1.6094531,-2.0775297,-9.204509
1421104371207.00,1.5875986,-2.1050725,-9.140741
1421104371229.00,1.6435821,-2.038461,-9.165291
1421104371247.00,1.6495697,-2.0755837,-9.224717
1421104371265.00,1.7838405,-2.0073256,-9.206904
1421104371285.00,1.6955241,-2.0172052,-9.345516
1421104371305.00,1.75525,-2.0862117,-9.301357
1421104371325.00,1.6073575,-2.0383112,-9.198072
1421104371391.00,1.6262183,-1.9868184,-9.202414
1421104371392.00,1.778751,-2.0568726,-9.153166
1421104371392.00,1.6140934,-2.0390596,-9.30031
1421104371423.00,1.6831,-2.1002824,-9.188193
1421104371426.00,1.5934365,-2.0164568,-9.105266
1421104371445.00,1.6572038,-2.0728893,-9.216784
1421104371466.00,1.6043637,-2.090403,-9.263337
1421104371485.00,1.6598983,-2.1402493,-9.203312
