time_milisec,ax,ay,az
1421106073145.00,-1.0461745,3.267555,9.151968
1421106073160.00,-1.1558963,3.231031,9.255703
1421106073183.00,-1.0092014,3.1907647,9.387428
1421106073202.00,-0.75368273,3.2024405,9.285192
1421106073213.00,-0.8596623,3.1591804,9.24268
1421106073233.00,-0.79290116,3.339256,9.161399
1421106073253.00,-0.83975375,3.099754,9.5699
1421106073273.00,-0.89169574,3.139721,9.512419
1421106073296.00,-0.8267308,3.075654,9.402248
1421106073313.00,-0.9533675,3.0753548,9.493258
1421106073334.00,-0.93286014,3.328628,9.392219
1421106073354.00,-0.8909473,3.231031,9.433084
1421106073376.00,-0.9104068,3.2106733,9.438922
1421106073393.00,-0.90052736,3.3895514,9.611813
1421106073415.00,-0.97207856,3.4393978,9.439521
1421106073433.00,-0.8659493,3.2070808,9.314231
1421106073454.00,-0.9096584,3.3208442,9.376202
1421106073474.00,-0.84858537,3.3992813,9.421557
1421106073493.00,-0.9313632,3.3973353,9.233549
1421106073522.00,-0.9880952,3.5378928,9.324709
1421106073540.00,-0.94902647,3.3756304,9.253457
1421106073553.00,-0.748743,3.2169602,9.356294
1421106073574.00,-0.7668553,3.114723,9.257798
1421106073594.00,-0.558788,3.1680121,9.252858
1421106073616.00,-0.54860914,3.2871642,9.183403
1421106073636.00,-0.8069719,3.288212,9.227411
1421106073654.00,-0.7402107,3.3443453,9.301806
1421106073676.00,-0.7788304,3.1501992,9.1765175
1421106073694.00,-0.84065187,3.514691,9.234896
1421106073714.00,-0.9610016,3.5810032,9.204359
1421106073733.00,-1.0008187,3.306624,9.208101
1421106073755.00,-0.8571176,3.310815,9.213041
1421106073773.00,-0.8532257,3.3816178,9.268576
1421106073794.00,-0.8652008,3.50571,9.28624
1421106073813.00,-0.9054671,3.2823744,9.458082
1421106073835.00,-0.8262817,3.263214,9.506881
1421106073853.00,-0.83511335,3.3919463,9.454041
1421106073874.00,-0.7924521,3.2747402,9.109906
1421106073893.00,-0.7614665,3.3274305,9.289982
1421106073915.00,-1.0770104,3.2991395,9.4491005
1421106073934.00,-0.91504717,3.2431557,9.267229
1421106073954.00,-0.7547305,3.1522949,9.351503
1421106073973.00,-0.77972853,3.25558,9.319171
1421106073993.00,-0.79828995,3.3983831,9.363329
1421106074014.00,-0.84364563,3.2268398,9.31498
1421106074033.00,-0.8452922,3.1644197,9.37695
1421106074053.00,-0.8446934,3.1886692,9.357192
1421106074073.00,-0.7171587,3.195405,9.528436
1421106074093.00,-0.99812436,3.3905993,9.518556
1421106074113.00,-0.9647438,3.2157629,9.331445
1421106074133.00,-0.79933774,3.153193,9.257948
1421106074153.00,-0.78631485,3.1647189,9.392967
1421106074173.00,-0.9291179,3.3069232,9.411229
1421106074193.00,-0.86579955,3.268154,9.472602
1421106074213.00,-0.6012996,3.2165112,9.370963
1421106074233.00,-0.49187714,3.1234047,9.43009
1421106074254.00,-0.5718109,2.9653335,9.672735
1421106074274.00,-0.80218184,3.0575418,9.599538
1421106074296.00,-0.7623646,3.3160543,9.499097
1421106074315.00,-0.6170169,3.291206,9.477541
1421106074335.00,-0.68497556,2.9906309,9.37695
1421106074356.00,-0.7197034,3.2284863,9.398655
1421106074374.00,-0.8467891,3.401826,9.423953
1421106074394.00,-0.88705534,3.284021,9.426797
1421106074415.00,-0.780477,3.2269895,9.39147
1421106074434.00,-0.7066805,3.2793806,9.368568
1421106074453.00,-0.8000862,3.1927106,9.4176655
1421106074474.00,-0.8418494,3.1717544,9.505234
1421106074495.00,-0.66162413,3.1066396,9.474997
1421106074519.00,-0.6234535,3.0936167,9.327553
1421106074537.00,-0.83915496,3.201692,9.48802
1421106074600.00,-0.84065187,3.080145,9.404044
1421106074601.00,-0.56208116,3.1633718,9.382789
1421106074604.00,-0.7020401,3.0789473,9.348061
1421106074675.00,-0.8044272,3.2588732,9.202264
1421106074676.00,-0.757874,3.2198043,9.447903
1421106074677.00,-0.8457413,3.1997461,9.547895
1421106074677.00,-0.7298822,3.1500494,9.402248
1421106074707.00,-0.6328839,3.1615756,9.433383
1421106074713.00,-0.6601273,3.3114138,9.484278
1421106074762.00,-0.8216414,3.2259417,9.45883
1421106074763.00,-0.7734416,3.2635136,9.503139
1421106074794.00,-0.760269,3.2311807,9.496252
1421106074795.00,-0.7390132,3.179089,9.484427
1421106074845.00,-0.916544,3.2126193,9.456136
1421106074846.00,-0.80502594,3.1621742,9.417366
1421106074900.00,-0.7258406,3.1844778,9.364227
1421106074900.00,-0.64006895,3.2437546,9.360186
1421106074902.00,-0.6676117,3.1260993,9.388776
1421106074934.00,-0.7958949,3.1311886,9.408385
1421106074935.00,-0.558788,3.0774505,9.48308
1421106074993.00,-0.6514453,3.1168184,9.461824
1421106074993.00,-0.54980665,3.0380824,9.36782
1421106074994.00,-0.54606444,2.9177325,9.307944
1421106075045.00,-0.5786966,2.9120443,9.581276
1421106075046.00,-0.52061737,2.9813502,9.485175
1421106075071.00,-0.552052,2.9268637,9.508527
1421106075077.00,-0.64066774,3.0008097,9.70432
1421106075129.00,-0.8569679,3.2064822,9.835148
1421106075129.00,-0.9092093,3.30857,9.587862
1421106075176.00,-1.1472144,3.4986744,9.422456
1421106075176.00,-1.2346326,3.5241215,9.209599
1421106075177.00,-1.096919,3.650309,9.144633
1421106075237.00,-1.3675561,3.771557,9.169782
1421106075238.00,-1.6202307,3.757187,9.371712
1421106075239.00,-1.5099101,3.6663258,9.218131
1421106075318.00,-1.1925701,3.540288,9.143436
1421106075319.00,-1.3057348,3.5708244,9.332044
1421106075320.00,-1.1916718,3.4037719,9.364826
1421106075321.00,-1.0888357,3.5024166,9.28594
1421106075381.00,-1.1846366,3.6545005,9.406439
1421106075383.00,-1.2180171,3.7749999,9.19448
1421106075384.00,-1.2180171,3.608995,9.2625885
1421106075437.00,-1.2172687,3.9276824,8.124954
1421106075439.00,-1.3262421,3.720513,9.580228
1421106075440.00,-1.2674145,3.2528856,9.430988
1421106075484.00,-1.5769707,3.7589831,9.32905
1421106075485.00,-1.3718971,3.6877313,9.346414
1421106075542.00,-1.2491524,3.6245627,9.268725
1421106075543.00,-1.1928694,3.6236646,9.019045
1421106075544.00,-1.3519886,3.8544846,9.094189
1421106075554.00,-1.344055,3.7154238,9.26693
1421106075595.00,-1.1341914,3.588338,9.305399
1421106075596.00,-1.0036628,3.648363,9.250763
1421106075613.00,-1.0774595,3.5326538,9.464519
1421106075636.00,-1.1984079,3.4393978,9.712553
1421106075654.00,-1.0288106,3.3441956,9.514963
1421106075674.00,-0.90022796,3.1521451,9.451795
1421106075693.00,-0.9849518,3.4910402,9.571695
1421106075713.00,-1.0779085,3.5983672,9.374256
1421106075736.00,-1.0657837,3.6016603,9.388626
1421106075754.00,-0.81011534,3.323838,9.469309
1421106075773.00,-0.87807405,3.3200958,9.592952
1421106075794.00,-1.0490185,3.411855,9.52619
1421106075813.00,-0.81041473,3.2750394,9.409433
1421106075833.00,-0.84708846,3.2470477,9.491612
1421106075854.00,-0.79035646,2.983446,9.450598
1421106075874.00,-0.56627244,3.1135254,9.401649
1421106075894.00,-0.56717056,3.0431716,9.344019
1421106075914.00,-0.72269714,3.0320947,9.414971
1421106075934.00,-0.5939648,3.0579908,9.194779
1421106075953.00,-0.68677187,3.1491513,9.252858
1421106075974.00,-0.6622229,3.1317873,9.196575
1421106075993.00,-0.6888675,3.1808853,9.346563
1421106076013.00,-0.6279442,3.0502071,9.140143
1421106076034.00,-0.6240523,3.0481114,9.237441
1421106076053.00,-0.7746391,3.1846275,9.24732
1421106076074.00,-0.84110093,3.289709,9.373807
1421106076094.00,-0.86445236,3.1507978,9.42994
1421106076115.00,-0.8563692,3.382067,9.482331
1421106076134.00,-0.8586145,3.4337096,9.502689
1421106076154.00,-0.85756665,3.3837135,9.488319
1421106076173.00,-0.8295749,3.2852182,9.397159
1421106076194.00,-0.92941725,3.3612602,9.288634
1421106076218.00,-0.87927157,3.4078133,9.346863
1421106076235.00,-0.9859996,3.4262252,9.438772
1421106076256.00,-0.98165864,3.3016841,9.590706
1421106076275.00,-0.9633966,3.2135174,9.254056
1421106076295.00,-0.83855623,3.169509,9.284143
1421106076315.00,-0.9909393,3.3717384,9.358988
1421106076339.00,-1.0159373,3.324437,9.525143
1421106076355.00,-0.9812096,3.2813265,9.532777
1421106076376.00,-0.8132588,3.1633718,9.489816
1421106076395.00,-0.84514254,3.3673975,9.390423
1421106076420.00,-0.93450665,3.3847613,9.447903
1421106076435.00,-0.8111632,3.4203873,9.515562
1421106076461.00,-0.71162015,3.396886,9.613608
1421106076474.00,-0.40011796,3.3691938,8.835826
1421106076494.00,-1.0921289,3.5670822,9.0953865
1421106076519.00,-1.4650035,3.6125877,10.350526
1421106076536.00,-0.4951703,3.0129347,9.399703
1421106076560.00,-0.735271,3.250341,9.239836
1421106076594.00,-0.80233157,3.2374678,9.122779
1421106076596.00,-0.76386154,3.3648527,9.053324
1421106076626.00,-0.7685019,3.2471974,9.447753
1421106076661.00,-0.74919206,2.9310548,9.613608
1421106076662.00,-0.6138734,2.878065,9.388776
1421106076674.00,-0.7845186,3.1763947,9.2813
1421106076694.00,-0.89543796,3.2350726,9.549691
1421106076714.00,-0.9377998,3.1946566,9.589508
1421106076733.00,-0.83855623,3.2524366,9.5914545
1421106076756.00,-0.81280977,3.2242951,9.294472
1421106076805.00,-0.77613604,3.3615596,9.0992775
1421106076806.00,-0.90277267,3.4988241,9.355395
1421106076827.00,-0.95097244,3.3891022,9.430389
1421106076834.00,-0.8345146,3.3043785,9.325008
1421106076865.00,-0.75847274,3.2552805,9.363928
1421106076875.00,-0.8333171,3.1289434,9.279054
1421106076894.00,-0.8117619,3.1022987,9.493708
1421106076920.00,-0.69605255,3.149301,9.541608
1421106076937.00,-0.73332506,3.0470636,9.328451
1421106076967.00,-0.77014846,3.0210178,9.192385
1421106076992.00,-0.8147557,3.1713052,9.163195
1421106076997.00,-0.7538324,3.2549813,9.25241
1421106077026.00,-0.74410266,3.2730935,9.133706
1421106077034.00,-0.9701326,3.288212,9.159303
1421106077060.00,-0.8837622,3.2307317,9.438772
1421106077075.00,-0.9880952,3.2540832,9.684561
1421106077095.00,-0.9859996,3.305127,9.438772
1421106077113.00,-1.1421249,3.4597554,9.275311
1421106077134.00,-1.1502081,3.4721797,9.206605
1421106077154.00,-1.1789484,3.304079,9.495055
1421106077174.00,-1.2014017,3.2700999,9.871971
1421106077194.00,-1.2799883,3.4182916,9.77138
1421106077214.00,-1.1796968,3.4151483,9.535621
1421106077234.00,-1.2554393,3.5236726,9.298813
1421106077255.00,-1.156046,3.5953734,9.3188715
1421106077274.00,-1.1605366,3.4519715,9.301507
1421106077295.00,-1.0720706,3.3876054,9.368419
1421106077316.00,-1.2783417,3.7688627,8.149353
1421106077334.00,-1.8321899,3.480712,10.141561
1421106077364.00,-1.2991484,3.4694853,9.406738
1421106077375.00,-1.194965,3.4028738,9.294771
1421106077401.00,-1.3431569,3.7082386,9.18011
1421106077422.00,-1.3272899,3.560945,9.210796
1421106077441.00,-1.0373428,3.4425411,9.319321
1421106077454.00,-1.0202783,3.2774346,9.525442
1421106077474.00,-1.0976673,3.3775764,9.648786
1421106077495.00,-1.1048524,3.3983831,9.576336
1421106077513.00,-1.0141411,3.257077,9.543704
1421106077535.00,-1.0503658,3.1698084,9.546698
1421106077554.00,-0.9671388,3.2350726,9.460627
1421106077576.00,-0.9241782,3.2727942,9.32905
1421106077599.00,-1.0151889,3.3156052,9.381441
1421106077614.00,-0.95890594,3.3976345,9.324559
1421106077638.00,-0.9687854,3.315156,9.315129
1421106077654.00,-0.9889934,3.3929942,9.348959
1421106077675.00,-0.9779164,3.4804125,9.397159
1421106077694.00,-0.9662407,3.3581169,9.429641
1421106077714.00,-1.0274634,3.1437626,9.602082
1421106077734.00,-0.9836046,3.2235465,9.581426
1421106077755.00,-0.9412427,3.3982334,9.588161
1421106077774.00,-0.9342073,3.3813186,9.471404
1421106077795.00,-1.0551558,3.3177009,9.528436
1421106077815.00,-0.9494755,3.3977842,9.401649
1421106077834.00,-0.84349597,3.4425411,9.439819
1421106077856.00,-1.1079959,3.4355059,9.529334
1421106077874.00,-1.0888357,3.3242872,9.310788
1421106077894.00,-0.9494755,3.29405,9.3663225
1421106077915.00,-0.8881032,3.4390984,9.45898
1421106077934.00,-0.98480207,3.390749,9.433383
1421106077954.00,-0.9873468,3.2153137,9.379645
1421106077976.00,-0.9849518,3.1804361,9.414223
1421106077994.00,-1.0639874,3.2133677,9.636211
1421106078014.00,-0.9024733,3.2560291,9.583671
1421106078034.00,-0.9940828,3.3410523,9.354946
1421106078054.00,-0.92208254,3.2864158,9.409134
1421106078074.00,-0.909359,3.3162038,9.402996
1421106078095.00,-0.8390053,3.3121624,9.398356
1421106078116.00,-0.9114546,3.1826816,9.520053
1421106078135.00,-0.74110883,3.220553,9.601334
1421106078155.00,-0.80622345,3.0509555,9.457034
1421106078176.00,-0.9223819,3.2121704,9.571246
1421106078195.00,-0.85786605,3.323389,9.55014
1421106078217.00,-0.7433542,3.2465987,9.332942
1421106078236.00,-0.7206015,3.1058912,9.3944645
1421106078254.00,-0.8812175,3.2177088,9.436526
1421106078274.00,-0.82343763,3.2787817,9.521999
1421106078294.00,-0.755479,3.129093,9.294172
1421106078314.00,-0.81565386,3.3251853,9.329499
1421106078334.00,-0.8747809,3.184328,9.242081
1421106078355.00,-0.7734416,3.1816337,9.305998
1421106078374.00,-1.0139914,3.24121,9.378298
1421106078394.00,-0.8559201,3.3057258,9.457184
1421106078414.00,-1.0376422,3.3795223,9.640253
1421106078434.00,-0.9131012,3.3391063,9.425749
1421106078456.00,-0.762664,3.4961298,9.373358
1421106078474.00,-0.83541274,3.3067734,9.375304
1421106078494.00,-0.89648575,3.331622,9.288185
1421106078514.00,-0.9234297,3.276237,9.469459
1421106078534.00,-0.75278455,3.29884,9.515412
1421106078555.00,-0.80367875,3.2052846,9.460776
1421106078574.00,-0.8333171,3.264711,9.395961
1421106078594.00,-0.8491841,3.281027,9.410181
1421106078614.00,-0.7905061,3.2172596,9.4973
1421106078635.00,-0.753533,3.2015424,9.390722
1421106078655.00,-0.8228389,3.320545,9.315728
1421106078677.00,-0.7551796,3.2404613,9.377399
1421106078695.00,-0.87627774,3.2271392,9.334589
1421106078718.00,-0.8479866,3.3111145,9.326206
1421106078734.00,-0.88600755,3.2368689,9.494456
1421106078754.00,-0.830473,3.2073803,9.592503
1421106078774.00,-0.8544232,3.1362782,9.71345
1421106078794.00,-0.8716374,3.117118,9.611663
1421106078815.00,-0.8360115,3.1003528,9.5351715
1421106078834.00,-0.7496411,3.080145,9.509126
1421106078854.00,-0.8322693,3.3636553,9.502989
1421106078874.00,-0.80742097,3.3239877,9.455237
1421106078894.00,-0.84229845,3.5440302,9.48817
1421106078915.00,-0.88720506,3.2700999,9.296718
1421106078936.00,-0.7319778,3.1359787,9.379346
1421106078959.00,-0.8137079,3.2124696,9.543554
1421106078976.00,-0.75996965,3.1193633,9.481433
1421106078998.00,-0.7141649,3.0777497,9.475446
1421106079016.00,-0.6788384,3.1213093,9.398655
1421106079034.00,-0.8662486,3.2126193,9.380243
1421106079055.00,-0.74006104,3.188819,9.397608
1421106079075.00,-0.8253836,3.2395632,9.374705
1421106079096.00,-0.8424481,3.307971,9.419911
1421106079114.00,-0.70937485,3.284021,9.366173
1421106079134.00,-0.7569759,3.1572344,9.470206
1421106079154.00,-0.7779323,3.1283445,9.466913
1421106079176.00,-0.77074724,3.1058912,9.403894
1421106079196.00,-0.78092605,3.2187567,9.342821
1421106079216.00,-0.7819739,3.2925532,9.368419
1421106079238.00,-0.8466394,3.2293844,9.273965
1421106079256.00,-0.7958949,3.2239957,9.19942
1421106079274.00,-0.782872,3.2449522,9.341175
1421106079294.00,-0.74230635,3.231929,9.421408
1421106079314.00,-0.8105644,3.3443453,9.456585
1421106079334.00,-0.7206015,3.4417927,9.555978
1421106079354.00,-0.85651886,3.2939003,9.39147
1421106079387.00,-0.6870712,3.3200958,9.30046
1421106079396.00,-0.7746391,3.3880546,9.341475
1421106079415.00,-0.61596906,3.246898,9.445957
1421106079435.00,-0.68527496,3.1946566,9.568253
1421106079457.00,-0.8557704,3.4164953,9.357491
1421106079474.00,-0.7858658,3.4247282,9.233399
1421106079494.00,-0.69350785,3.2569273,9.371412
1421106079514.00,-0.8547226,3.4043705,9.3293495
1421106079535.00,-0.9238788,3.2605197,9.4049425
1421106079554.00,-0.93196195,3.3991315,9.313782
1421106079575.00,-0.6779402,3.2491434,9.384285
1421106079594.00,-0.6683601,3.3129108,9.272468
1421106079614.00,-0.76760375,3.2982414,9.221574
1421106079635.00,-0.5170248,3.2385154,9.289383
1421106079654.00,-0.61522067,3.3636553,9.3486595
1421106079674.00,-0.753533,3.2947984,9.39162
1421106079695.00,-0.7830217,3.1174173,9.326805
1421106079715.00,-0.90846086,3.3712893,9.351054
1421106079734.00,-0.91744214,3.377277,9.167835
1421106079759.00,-0.8560698,3.3717384,9.3289
1421106079775.00,-0.7158115,3.4627492,9.342073
1421106079795.00,-0.87118834,3.3365617,9.4474535
1421106079815.00,-0.900677,3.531157,9.357491
1421106079835.00,-0.710722,3.4640963,9.344618
1421106079855.00,-0.82104266,3.348836,9.576336
1421106079877.00,-0.6915619,3.2885115,9.424552
1421106079970.00,-0.67988616,3.370092,9.2625885
1421106079970.00,-0.67584455,3.2883618,9.381741
1421106079971.00,-0.5530998,3.3941917,9.435479
1421106079972.00,-0.6623726,3.30363,9.539363
1421106080007.00,-0.70548296,3.2117212,9.489516
1421106080008.00,-0.7807764,3.2906072,9.372011
1421106080014.00,-0.7101233,3.3558714,9.382789
1421106080055.00,-0.8002359,3.4037719,9.448202
1421106080057.00,-0.7696994,3.445086,9.459279
1421106080122.00,-0.8424481,3.3645535,9.444759
1421106080122.00,-0.86639833,3.318,9.261091
1421106080123.00,-0.77957886,3.306025,9.322015
1421106080165.00,-0.67898804,3.3367112,9.356893
1421106080166.00,-0.7354207,3.237767,9.263935
1421106080228.00,-0.80487627,3.2546818,9.455387
1421106080229.00,-0.7430548,3.2828233,9.368269
1421106080230.00,-0.65907943,3.3950899,9.331744
1421106080235.00,-0.719404,3.1698084,9.273665
1421106080300.00,-0.6709049,3.385959,9.267379
1421106080300.00,-0.72539157,3.3678465,9.371861
1421106080301.00,-0.5777985,3.3498838,9.347611
1421106080332.00,-0.61761564,3.2630644,9.340576
1421106080381.00,-0.59007293,3.45272,9.384734
1421106080381.00,-0.75742495,3.4593062,9.306597
1421106080382.00,-0.7351213,3.452271,9.4494
1421106080439.00,-0.7652087,3.367098,9.434731
1421106080440.00,-0.7705975,3.1576836,9.55972
1421106080441.00,-0.7243437,3.3480875,9.545799
1421106080522.00,-0.6673123,3.369493,9.355395
1421106080522.00,-0.67195266,3.401826,9.267079
1421106080523.00,-0.81954575,3.4393978,9.425599
1421106080523.00,-0.8202942,3.2666569,9.4242525
1421106080547.00,-0.56238055,3.2608192,9.51182
1421106080603.00,-0.6189629,3.3780253,9.45419
1421106080604.00,-0.6059399,3.3241374,9.328751
1421106080604.00,-0.65339124,3.2741413,9.501641
1421106080662.00,-0.7708969,3.2217503,9.307345
1421106080663.00,-0.8196954,3.3554223,9.433084
1421106080663.00,-0.6915619,3.3332684,9.514664
1421106080717.00,-0.6774911,3.339256,9.476344
1421106080718.00,-0.6803352,3.2449522,9.539213
1421106080718.00,-0.7003935,3.4179924,9.351204
1421106080768.00,-0.8057744,3.4139507,9.291179
1421106080769.00,-0.7104227,3.3319213,9.31947
1421106080825.00,-0.70114195,3.3557217,9.345516
1421106080826.00,-0.7066805,3.3778756,9.414672
1421106080827.00,-0.8656499,3.5242712,9.447753
1421106080859.00,-0.65773225,3.369493,9.441616
1421106080860.00,-0.65114594,3.3925452,9.305848
1421106080913.00,-0.6662645,3.3784745,9.298064
1421106080914.00,-0.549657,3.2350726,9.388027
1421106080915.00,-0.61342436,3.1813345,9.621093
1421106080977.00,-0.63243484,3.2590227,9.489965
1421106080980.00,-0.5918692,3.223846,9.350455
1421106080982.00,-0.5885761,3.218008,9.425899
1421106081047.00,-0.53109556,3.3441956,9.241333
1421106081048.00,-0.61073,3.335813,9.363628
1421106081049.00,-0.6779402,3.2269895,9.273965
1421106081057.00,-0.5438191,3.3347654,9.303603
1421106081083.00,-0.6262976,3.4370027,9.413923
1421106081141.00,-0.58962387,3.3606615,9.476194
1421106081142.00,-0.7111711,3.3105156,9.426647
1421106081143.00,-0.6836284,3.4064662,9.388027
1421106081166.00,-0.69231033,3.2648606,9.464519
1421106081175.00,-0.5670209,3.3165033,9.400452
1421106081204.00,-0.671803,3.3271313,9.506282
1421106081215.00,-0.7228468,3.3659005,9.448052
1421106081237.00,-0.6598279,3.3938923,9.495654
1421106081309.00,-0.71760774,3.33252,9.480086
1421106081311.00,-0.6547385,3.4058676,9.280551
1421106081312.00,-0.59246796,3.3751812,9.2554035
1421106081337.00,-0.49292496,3.2073803,9.432934
1421106081338.00,-0.62734544,3.3617094,9.555978
1421106081355.00,-0.67045575,3.2630644,9.496252
1421106081375.00,-0.5266049,3.4509237,9.428892
1421106081395.00,-0.4022136,3.247347,9.313333
1421106081423.00,-0.3237767,3.2784824,9.057665
1421106081435.00,-0.3993695,3.57292,9.398207
1421106081455.00,-0.3715274,3.5052607,9.501941
1421106081475.00,-0.42317,3.3078213,9.357042
1421106081495.00,-0.404908,3.3102164,9.388926
1421106081515.00,-0.18411712,3.3115635,9.340127
1421106081535.00,-0.11855347,3.1916628,9.6002865
1421106081555.00,0.023201752,3.306025,9.166489
1421106081617.00,-0.1633104,2.998864,9.031769
1421106081618.00,0.00583786,3.1362782,9.325008
1421106081619.00,0.055684205,3.344046,9.383686
1421106081648.00,0.18082398,3.268154,9.203312
1421106081657.00,0.28994706,2.8178902,8.774154
1421106081675.00,0.100291446,3.006049,9.615853
1421106081696.00,-0.10837463,3.2906072,9.934391
1421106081715.00,-0.10897339,3.2754886,9.461974
1421106081736.00,-0.26539811,3.2361205,8.779693
1421106081764.00,-0.103135526,3.219505,8.2848215
1421106081775.00,-0.28785142,3.1573842,9.067544
1421106081795.00,-0.45176056,3.2361205,10.118808
1421106081815.00,-0.64845157,3.0279036,10.433304
1421106081835.00,-0.67868865,3.1174173,10.076745
1421106081860.00,-0.4047583,3.170407,9.549092
1421106081876.00,-0.27422974,3.2772849,9.318273
1421106081897.00,-0.39727387,3.2953973,9.93514
1421106081917.00,-0.45954436,3.3049772,9.795929
1421106081987.00,-0.4674779,3.1789393,9.534123
1421106081988.00,-0.44098297,3.1578333,9.441616
1421106081992.00,-0.37856278,3.1313384,9.2890835
1421106082028.00,-0.47151947,3.224744,9.281599
1421106082029.00,-0.46523255,3.282973,9.234746
1421106082037.00,-0.2640509,3.0999038,8.749156
1421106082055.00,-0.35221756,3.051704,8.637938
1421106082086.00,-0.3198848,3.2213013,9.382789
1421106082096.00,-0.886756,3.5630407,9.55957
1421106082115.00,-0.8310718,3.3290772,9.494007
1421106082135.00,-0.52855086,3.3289275,9.398207
1421106082159.00,-0.47810578,3.1084359,9.097931
1421106082176.00,-0.6542894,3.4259257,8.775651
1421106082197.00,-0.7345226,3.7947588,8.942254
1421106082216.00,-1.3374687,4.0863523,9.042097
1421106082289.00,-1.6813037,4.373156,9.402099
1421106082290.00,-1.7182769,4.230353,9.376801
1421106082291.00,-1.2196637,3.6066,9.058113
1421106082323.00,-1.370999,3.5636394,8.647667
1421106082324.00,-1.2223581,2.8674371,9.575288
1421106082335.00,-1.0970687,3.6200721,9.954749
1421106082355.00,-1.5985259,3.9737864,9.21858
1421106082376.00,-1.7871337,4.138893,8.590635
1421106082398.00,-1.9426602,4.3022037,8.677605
1421106082425.00,-1.9107765,4.489614,8.716225
1421106082436.00,-1.5560143,4.1248226,8.721912
1421106082456.00,-1.4862593,3.8935533,9.519155
1421106082475.00,-1.3934523,3.6881804,9.666598
1421106082495.00,-1.3070819,3.9655535,9.530381
1421106082514.00,-1.2424164,4.2242155,9.176368
1421106082538.00,-0.9066646,3.9520817,9.235495
1421106082642.00,-0.866548,3.7428167,10.063273
1421106082643.00,-0.5547464,3.9731877,10.130184
1421106082644.00,-0.6655161,3.8969963,9.203312
1421106082646.00,-0.46373567,3.647465,8.240065
1421106082647.00,0.14759308,3.3952396,8.318202
1421106082746.00,0.09759705,3.412753,9.202264
1421106082747.00,-0.022453308,3.0826895,9.420211
1421106082748.00,0.27408004,3.5863922,7.8704834
1421106082749.00,0.6490503,3.3958383,7.5062904
1421106082749.00,0.6200107,3.1178663,8.014933
1421106082757.00,0.8193961,3.1138248,9.24717
1421106082802.00,1.4536271,2.233655,9.5037365
1421106082805.00,2.3589447,0.50355285,12.706627
1421106082815.00,1.4010864,1.1337423,11.18549
1421106082835.00,0.8931926,3.1407688,7.5211096
1421106082856.00,2.1149518,3.5437307,6.001021
1421106082876.00,3.0832882,2.3132894,6.9748955
1421106082935.00,2.612218,1.171464,7.4280033
1421106082936.00,2.4447162,0.9286688,8.543484
1421106082936.00,2.1811144,1.173859,7.7519298
1421106082967.00,1.5733781,1.531615,8.363109
1421106082976.00,1.1514057,2.1770728,9.991572
1421106082995.00,1.357078,1.7416283,11.284733
1421106083015.00,1.1026071,0.9806108,10.0450115
1421106083034.00,-0.33096176,1.554667,6.6955767
1421106083055.00,-0.7192543,2.6114695,4.628375
1421106083084.00,-0.98420334,4.3354344,10.744357
1421106083096.00,0.2906955,6.5741787,11.134746
1421106083116.00,1.0960208,5.964347,8.278984
1421106083135.00,-5.803581,1.9411633,15.674355
1421106083155.00,0.434247,3.0832882,8.465346
1421106083175.00,1.2199631,2.4028034,5.9430914
1421106083195.00,1.0035132,1.9223026,7.337741
1421106083257.00,1.3798306,0.87403244,9.272617
1421106083258.00,1.9059864,1.8061441,8.76652
1421106083258.00,2.831961,0.7509883,7.9635897
1421106083285.00,2.913691,0.6908134,6.6175885
1421106083295.00,2.4167244,1.2605287,7.9267664
1421106083315.00,3.9425015,0.92298067,7.655979
1421106083335.00,4.3321414,0.0889151,6.7591944
1421106083355.00,2.9803023,0.51043856,6.8868785
1421106083378.00,2.2811065,0.90846086,7.917635
1421106083431.00,3.7067418,0.44427612,7.8918886
1421106083436.00,4.817881,-0.47855484,8.257278
1421106083467.00,6.0739193,-0.911754,9.045989
1421106083474.00,7.5365276,-0.69605255,8.504265
1421106083476.00,8.603359,-0.8825647,8.306526
1421106083517.00,7.9526625,-1.4735358,9.45449
1421106083518.00,6.801556,-2.360142,9.961635
1421106083536.00,7.8761716,-2.5218058,9.642797
1421106083664.00,9.156908,-2.0348685,7.5082364
1421106083665.00,9.909992,-1.6482224,5.707182
1421106083666.00,9.888437,-2.408342,5.2582655
1421106083667.00,10.289752,-2.715503,5.5452185
1421106083668.00,10.633737,-2.2761667,5.485343
1421106083669.00,10.71382,-1.269061,5.923931
1421106083692.00,9.904753,-3.7227585,4.229455
1421106083701.00,9.139844,-4.253555,2.6628127
1421106083715.00,9.11784,-3.701802,2.6032364
1421106083735.00,9.550739,-4.238436,4.26538
1421106083756.00,10.2684965,-4.47689,6.100564
1421106083788.00,11.796669,-4.3186693,4.987628
1421106083796.00,13.1052475,-1.8962567,3.436404
1421106083817.00,13.051509,-3.5988162,4.0757246
1421106083836.00,12.291091,-4.942123,2.975213
1421106083983.00,12.1664,-4.979695,2.200574
1421106083984.00,12.064761,-3.3114138,3.350782
1421106083985.00,10.411749,-2.1368065,1.4147081
1421106083991.00,7.062613,-2.0989351,1.4453943
1421106083999.00,2.7249334,-1.9546353,1.5241306
1421106084000.00,-1.463357,-1.1026071,-0.5138814
1421106084003.00,-1.3748909,-1.529669,-1.1102413
1421106084004.00,2.082769,-0.8508307,-1.6010705
1421106084034.00,2.347718,-2.4634273,0.18546432
1421106084036.00,5.7832236,-7.1230874,0.26988876
1421106084280.00,8.837771,-5.9683886,1.6968713
1421106084281.00,10.8682995,-5.846542,-1.0011182
1421106084281.00,9.2566,-6.9695067,2.0489392
1421106084283.00,6.267766,-7.32397,1.9944525
1421106084284.00,5.0734,-7.4500074,-3.4799633
1421106084288.00,5.2888017,-10.347532,-5.2784734
1421106084289.00,4.0896454,-10.001601,-3.2430062
1421106084290.00,4.699178,-15.839461,0.60713744
1421106084291.00,5.6504498,-13.550721,-0.21390519
1421106084292.00,6.481222,-8.001311,-0.5528004
1421106084293.00,3.656147,-6.0320063,-0.6851253
1421106084295.00,4.247118,-7.80941,-0.36539018
1421106084297.00,5.1730924,-7.686366,-0.8750803
1421106084328.00,5.6169195,-6.467002,-2.8711793
1421106084336.00,4.0409966,-7.243587,3.3033307
1421106084486.00,1.7360898,-6.5942373,-0.68183213
1421106084488.00,0.72778654,-6.05925,-2.1405487
1421106084490.00,0.9437874,-5.461842,-2.8523185
1421106084497.00,-0.72269714,-5.310507,-3.3274305
1421106084498.00,-1.6711249,-8.139474,3.259472
1421106084499.00,-0.1552272,-8.91576,-0.32287857
1421106084500.00,0.2826123,-10.513836,-0.9541159
1421106084501.00,1.6197816,-0.3875441,-1.9989432
1421106084603.00,-1.2927117,-4.1213794,2.7355614
1421106084604.00,-2.9356952,-4.263135,2.8669882
1421106084609.00,-3.2856674,-4.722829,-1.051713
1421106084610.00,-2.3881338,-4.550088,-3.603756
1421106084611.00,-1.57248,-3.5649865,-3.7757483
1421106084617.00,-2.5638685,-6.391259,-0.96414506
1421106084647.00,-4.4141707,-11.549982,1.239273
1421106084663.00,-8.911269,-16.707657,7.3178325
1421106084737.00,-9.437125,-17.565073,6.680009
1421106084744.00,-3.1296918,-4.7383966,-1.6006215
1421106084745.00,-4.3280997,-2.1833596,-11.797118
1421106084746.00,-4.9585886,-8.064929,-3.8100271
1421106084767.00,-4.632866,-9.012159,1.1319461
1421106084776.00,-4.2261615,-8.948691,2.893483
1421106084813.00,-3.221451,-9.352551,1.7836908
1421106084816.00,-2.3424788,-10.066117,1.522933
1421106084875.00,-2.691104,-9.544303,0.1817221
1421106084876.00,-2.6475444,-9.433084,-0.79065585
1421106084877.00,-2.6903553,-9.228759,-1.0231224
1421106084898.00,-2.8255243,-9.098829,-0.72419405
1421106084915.00,-3.0455668,-9.356294,-0.07589218
1421106084936.00,-3.0773008,-9.474398,0.12903167
1421106084959.00,-3.0404773,-9.408984,-0.36718643
1421106084975.00,-3.3278797,-9.527238,-0.7696994
1421106084996.00,-3.4889448,-9.519903,-0.83945435
1421106085015.00,-3.6271074,-9.426048,-0.75278455
1421106085035.00,-3.2715967,-9.512269,-0.65892977
1421106085056.00,-3.2418087,-9.290131,-0.63617706
1421106085076.00,-3.50077,-9.05976,-0.60010207
1421106085096.00,-3.8317318,-8.820558,-0.3264711
1421106085116.00,-3.9989343,-9.093889,-0.23067032
1421106085135.00,-3.7458105,-9.133407,-0.44262955
1421106085204.00,-3.0135334,-9.183253,-1.305585
1421106085205.00,-2.803071,-9.65642,-1.5826589
1421106085207.00,-2.9362938,-9.655372,-1.115181
1421106085217.00,-3.010839,-9.482182,-0.8150551
1421106085235.00,-3.397934,-9.150921,-1.183439
1421106085256.00,-3.1126273,-8.60276,-1.2403207
1421106085275.00,-3.0509555,-8.832383,-1.2358301
1421106085296.00,-3.221451,-9.374106,-0.9418414
1421106085318.00,-2.762206,-9.278156,-1.2798386
1421106085336.00,-1.9133213,-9.343121,-2.528392
1421106085356.00,-1.5730788,-9.069041,-2.4858806
1421106085376.00,-2.1763244,-8.986712,-2.3287075
1421106085395.00,-2.7496321,-9.418264,-2.3170316
1421106085416.00,-2.9466224,-9.513167,-2.8888426
1421106085435.00,-2.2147944,-8.562644,-3.1365774
1421106085458.00,-2.1971312,-8.365654,-2.6690996
1421106085476.00,-2.2326074,-8.552166,-2.7553203
1421106085496.00,-1.4874568,-8.927734,-3.2439044
1421106085551.00,-0.8931926,-8.642578,-2.9993129
1421106085552.00,-0.89932984,-8.7825365,-2.7788215
1421106085564.00,-0.8587642,-8.902138,-2.5947044
1421106085581.00,-0.55235136,-9.104816,-2.7952871
1421106085596.00,-0.4712201,-9.307795,-2.6978397
1421106085616.00,-0.818947,-9.254954,-2.8135493
1421106085636.00,-1.1213182,-9.056168,-3.3730857
1421106085656.00,-0.85502195,-8.912018,-4.201164
1421106085675.00,-1.0243199,-9.001082,-4.071683
1421106085695.00,-1.2789404,-8.834628,-4.045637
1421106085716.00,-1.1174263,-8.762628,-4.16943
1421106085737.00,-0.8520282,-8.649763,-4.023633
1421106085755.00,-1.2689112,-8.212522,-3.9674995
1421106085776.00,-1.6497194,-8.004005,-4.266428
1421106085796.00,-1.7631835,-8.100854,-4.1516166
1421106085815.00,-2.1100123,-8.618777,-4.26059
1421106085880.00,-2.2535636,-8.637638,-4.3469605
1421106085881.00,-1.7074993,-8.374934,-4.3140287
1421106085882.00,-1.2642709,-8.29036,-4.1055126
1421106085896.00,-0.58977354,-8.641231,-4.2698708
1421106085916.00,-0.46268785,-8.821306,-4.304748
1421106085936.00,-0.55414766,-8.281528,-4.2239165
1421106085957.00,-1.0054592,-7.648944,-4.301455
1421106085980.00,-1.1955638,-7.8939843,-4.454736
1421106085996.00,-0.9331595,-8.18453,-4.6505294
1421106086015.00,-0.43619293,-7.726483,-5.375172
1421106086036.00,-0.08202942,-7.0215983,-5.101242
1421106086057.00,-0.24504043,-7.1428466,-5.077591
1421106086079.00,-0.66342044,-7.0867133,-5.1897078
1421106086098.00,-1.146915,-7.410041,-5.582491
1421106086116.00,-1.2455598,-7.46318,-6.2182193
1421106086178.00,-1.526825,-7.435937,-6.022127
1421106086179.00,-1.296454,-7.1558695,-6.5244823
1421106086180.00,-0.95875627,-6.667585,-6.758296
1421106086196.00,-0.9213341,-6.3333297,-7.331604
1421106086215.00,-1.1437715,-5.7226,-7.634424
1421106086236.00,-0.45595184,-6.3697042,-6.86218
1421106086255.00,0.75023985,-6.403384,-6.8740053
1421106086275.00,1.8166223,-5.9140515,-6.899303
1421106086296.00,2.0892055,-5.517676,-6.5282245
1421106086316.00,2.1469853,-5.0096326,-7.4697666
1421106086336.00,2.0428019,-4.229455,-7.1236863
1421106086359.00,1.6941769,-3.8131704,-6.982829
1421106086379.00,1.0130932,-2.5589287,-8.875643
1421106086396.00,1.4187497,-1.7805474,-9.682166
1421106086416.00,1.9556831,-2.5656648,-11.207045
1421106086435.00,1.3956976,-2.8865974,-12.126732
1421106086455.00,0.902623,-2.1712348,-11.287727
1421106086530.00,1.1882291,-2.44292,-13.179343
1421106086531.00,1.513802,-2.877167,-13.058096
1421106086532.00,1.5280224,-2.8928843,-11.325748
1421106086542.00,1.3603711,-2.6479936,-10.264754
1421106086555.00,1.5024257,-2.342329,-9.2416315
1421106086576.00,1.4447955,-1.9898121,-8.254435
1421106086596.00,1.8064435,-1.8705102,-7.958051
1421106086616.00,2.1481829,-1.9931053,-8.052355
1421106086638.00,2.4677682,-2.1773722,-8.287366
1421106086656.00,2.465972,-2.3165827,-8.477022
1421106086676.00,2.6292825,-2.7957363,-8.49274
1421106086698.00,2.758763,-2.7319689,-8.368198
1421106086715.00,2.7599607,-2.4622297,-8.613238
1421106086736.00,2.8630962,-2.2674847,-9.615555
1421106086756.00,2.6815238,-2.1802163,-9.944271
1421106086781.00,1.9440074,-2.055825,-9.8149395
1421106086842.00,1.7015117,-2.419269,-9.314081
1421106086843.00,1.7506096,-2.4984543,-8.880882
1421106086844.00,2.2049148,-2.437082,-8.866662
1421106086856.00,2.417922,-2.490521,-8.579858
1421106086876.00,2.5331821,-2.736759,-8.533305
1421106086896.00,2.6147625,-2.6378145,-8.571326
1421106086916.00,2.5831783,-2.417922,-8.875343
1421106086938.00,2.6557772,-2.5279431,-9.032666
1421106086956.00,2.6399102,-2.5623715,-8.848699
1421106086978.00,2.8678863,-2.6026378,-8.819809
1421106086996.00,2.671794,-2.52944,-8.888367
1421106087021.00,2.491419,-2.334246,-8.9199505
1421106087036.00,2.2972727,-2.509232,-8.985664
1421106087060.00,2.3441253,-2.5927584,-8.948691
1421106087076.00,2.2817051,-2.4867787,-8.847202
1421106087096.00,2.3728657,-2.407743,-8.815168
1421106087174.00,2.3589447,-2.5761428,-8.972192
1421106087176.00,2.415078,-2.6125174,-8.897647
1421106087177.00,2.37556,-2.5939558,-8.909023
1421106087181.00,2.3079007,-2.4580386,-8.935518
1421106087196.00,2.2628443,-2.6861641,-8.912915
1421106087216.00,2.2570066,-2.7601104,-8.794362
1421106087236.00,2.1415966,-2.6918523,-8.870704
1421106087256.00,1.9947519,-2.649191,-8.981772
1421106087276.00,2.0463946,-2.7482848,-9.0197935
1421106087296.00,1.9446062,-2.617008,-9.075478
1421106087316.00,1.7242644,-2.5228536,-9.098979
1421106087336.00,1.8580861,-2.6021888,-8.965456
1421106087356.00,1.8675165,-2.6828709,-9.014704
1421106087376.00,1.8523979,-2.7192452,-8.957373
1421106087396.00,1.963018,-2.6352699,-8.905131
1421106087416.00,1.9576291,-2.7378068,-8.779543
1421106087436.00,1.9724482,-2.715054,-8.883427
1421106087539.00,1.9829265,-2.6511369,-8.9265375
1421106087540.00,2.0290306,-2.8372,-8.898695
1421106087541.00,2.0444486,-2.8994706,-8.836724
1421106087542.00,1.9550843,-2.7758276,-8.93013
1421106087542.00,1.8886226,-2.7629545,-8.935219
1421106087562.00,1.8812878,-2.7322683,-8.923393
1421106087576.00,1.6299605,-2.8377988,-8.8484
1421106087596.00,1.5872992,-2.8187883,-9.019644
1421106087616.00,1.660497,-2.7298732,-9.015902
1421106087636.00,1.547033,-2.855911,-8.901239
1421106087656.00,1.5121554,-2.8216324,-8.898545
1421106087676.00,1.7054036,-2.664609,-9.030421
1421106087696.00,1.9417621,-2.7557693,-8.899593
1421106087718.00,1.8766475,-2.9075537,-8.976982
1421106087737.00,1.9540366,-2.7978318,-8.88193
1421106087759.00,1.9881656,-2.9301567,-8.874146
1421106087825.00,2.0767813,-2.8298652,-8.941656
1421106087830.00,1.9820284,-2.746788,-9.071286
1421106087831.00,1.9056871,-2.838697,-9.094039
1421106087836.00,1.72157,-2.8187883,-9.014554
1421106087856.00,1.6106507,-2.8488758,-9.004226
1421106087877.00,1.4221926,-2.6673033,-9.031469
1421106087896.00,1.3910573,-2.579885,-9.005722
1421106087919.00,1.4304254,-2.5547373,-9.106314
1421106087937.00,1.527274,-2.545307,-9.076974
1421106087957.00,1.5379019,-2.6435027,-9.303004
1421106087976.00,1.5691868,-2.759362,-9.125623
1421106087997.00,1.5675403,-2.68332,-9.025631
1421106088020.00,1.5172448,-2.7750793,-9.022937
1421106088036.00,1.4938934,-2.737657,-8.962313
1421106088056.00,1.3774356,-2.790497,-9.187594
1421106088076.00,1.2482543,-2.753973,-9.118737
1421106088145.00,1.3219011,-2.8110044,-8.986563
1421106088146.00,1.250799,-2.8461814,-9.03132
1421106088147.00,1.163231,-2.9062066,-9.066795
1421106088156.00,1.2003539,-2.837649,-9.041798
1421106088176.00,1.0356963,-2.7750793,-9.113349
1421106088197.00,1.1079959,-2.7195446,-9.105865
1421106088216.00,0.84634,-2.7728338,-9.187894
1421106088242.00,0.8159532,-2.7672954,-9.084458
1421106088270.00,0.6860234,-2.6599686,-9.204359
1421106088279.00,0.5755531,-2.7327173,-9.217532
1421106088298.00,0.6195616,-2.6285338,-9.139395
1421106088317.00,0.5760022,-2.5066874,-9.163344
1421106088338.00,0.57480466,-2.60638,-9.245973
1421106088359.00,0.65099627,-2.5780888,-9.266331
1421106088378.00,0.65743285,-2.597249,-9.232052
1421106088403.00,0.69725007,-2.5185127,-9.145831
1421106088481.00,0.87627774,-2.475103,-9.253607
1421106088482.00,0.9770183,-2.5843759,-9.186846
1421106088483.00,1.0645862,-2.5878186,-9.173823
1421106088484.00,1.1008109,-2.6207502,-9.1588545
1421106088497.00,1.1606864,-2.7538233,-9.206006
1421106088516.00,1.2229569,-2.6990373,-9.007369
1421106088536.00,1.2759466,-2.6637108,-9.115893
1421106088556.00,1.2084371,-2.587669,-9.177116
1421106088577.00,1.3090279,-2.7216403,-9.140293
1421106088597.00,1.3078303,-2.7762766,-9.143586
1421106088617.00,1.2900174,-2.680925,-9.042097
1421106088636.00,1.2292438,-2.7214906,-9.2087
1421106088656.00,1.1820918,-2.6566753,-9.175619
1421106088677.00,1.2081376,-2.6243427,-9.214389
1421106088696.00,1.1582913,-2.6776319,-9.249715
1421106088716.00,1.207988,-2.6912534,-9.038205
1421106088736.00,1.1925701,-2.7041268,-9.096583
1421106088801.00,1.228645,-2.6488917,-9.076226
1421106088802.00,1.2868739,-2.6575735,-9.197773
1421106088803.00,1.2874727,-2.5878186,-9.238788
1421106088817.00,1.2449611,-2.64964,-9.312285
1421106088836.00,1.3260924,-2.6244924,-9.126521
1421106088856.00,1.2232562,-2.6614654,-9.141041
1421106088877.00,1.3503419,-2.5727,-9.129664
1421106088896.00,1.3702506,-2.76505,-9.257948
1421106088916.00,1.13973,-2.7042763,-9.02593
1421106088937.00,1.2039464,-2.7045758,-9.148825
1421106088956.00,1.1442206,-2.581382,-9.142089
1421106088977.00,1.2337345,-2.6324258,-9.18026
1421106088996.00,1.2138258,-2.5060885,-9.1130495
1421106089016.00,1.1476635,-2.5891657,-9.201515
1421106089037.00,1.0177336,-2.7211912,-9.152567
1421106089122.00,1.0539583,-2.628983,-9.108109
1421106089123.00,1.0864407,-2.6143136,-9.187295
1421106089124.00,1.2668157,-2.5638685,-9.211694
1421106089125.00,1.2639716,-2.699636,-9.16589
1421106089150.00,1.1207194,-2.6864634,-9.170529
1421106089159.00,1.126707,-2.7041268,-9.179511
1421106089177.00,1.0484198,-2.6288333,-9.066346
1421106089197.00,1.1072475,-2.6888585,-9.136999
1421106089216.00,1.1690689,-2.7777736,-9.137748
1421106089238.00,1.1879296,-2.636767,-9.196875
1421106089260.00,1.1701168,-2.6038353,-9.186097
1421106089277.00,1.10126,-2.7882519,-9.1748705
1421106089297.00,1.2436138,-2.7940896,-9.094039
1421106089321.00,1.1344908,-2.669848,-9.173374
1421106089336.00,1.0919793,-2.651586,-9.227561
1421106089357.00,0.9689351,-2.6399102,-9.161998
1421106089376.00,0.91384965,-2.6104217,-9.250913
1421106089442.00,0.94453585,-2.6661057,-9.156309
1421106089443.00,1.0166858,-2.7196944,-9.211246
1421106089443.00,1.0919793,-2.8433373,-9.277408
1421106089456.00,1.109343,-2.6331742,-9.25226
1421106089476.00,0.9846524,-2.6247916,-9.22786
1421106089496.00,0.9859996,-2.618355,-9.065897
1421106089516.00,1.127156,-2.638713,-9.127569
1421106089536.00,1.0048604,-2.5671616,-8.994645
1421106089556.00,1.0350975,-2.6056316,-9.116193
1421106089577.00,1.1048524,-2.726131,-9.200169
1421106089598.00,1.0946736,-2.6497898,-9.330098
1421106089620.00,1.2862751,-2.5562344,-9.30016
1421106089637.00,1.1157798,-2.6113198,-9.145082
1421106089657.00,1.1746074,-2.6274862,-9.133556
1421106089676.00,0.9663904,-2.6451495,-9.217532
1421106089698.00,1.1838881,-2.6002429,-9.108109
1421106089775.00,1.007405,-2.6168582,-9.242081
1421106089776.00,1.049767,-2.6927505,-9.210946
1421106089777.00,1.0639874,-2.6800268,-9.242081
1421106089778.00,0.98510146,-2.7186465,-9.177266
1421106089800.00,0.9928853,-2.6723928,-9.150771
1421106089824.00,1.0539583,-2.692451,-9.123677
1421106089836.00,1.0816507,-2.7864556,-8.960068
1421106089860.00,1.1222163,-2.6062303,-9.160351
1421106089877.00,1.0988649,-2.6077273,-9.237291
1421106089897.00,1.013692,-2.6191034,-9.122479
1421106089917.00,1.0035132,-2.593357,-9.168883
1421106089936.00,1.0627899,-2.5637188,-9.181308
1421106089957.00,1.0719209,-2.6680517,-9.162597
1421106089979.00,1.1186239,-2.6449997,-9.138796
1421106089998.00,1.093476,-2.559228,-9.068442
1421106090019.00,0.9770183,-2.5819807,-9.228609
1421106090038.00,1.1011102,-2.6918523,-9.138197
1421106090058.00,1.1277548,-2.6637108,-9.158106
1421106090119.00,1.0115963,-2.605931,-9.093889
1421106090120.00,1.0635383,-2.6331742,-9.154513
1421106090121.00,0.9707314,-2.5894651,-9.209299
1421106090142.00,0.98510146,-2.60159,-9.185798
1421106090157.00,1.0602452,-2.6623635,-9.226364
1421106090177.00,1.0530602,-2.5743465,-9.234746
1421106090197.00,1.1202704,-2.605931,-9.287287
1421106090219.00,1.2557387,-2.6397605,-9.156309
1421106090238.00,1.1053015,-2.730921,-9.069789
1421106090258.00,1.0835967,-2.7096653,-9.32396
1421106090278.00,1.2623249,-2.7116113,-9.331146
1421106090299.00,1.0307565,-2.4893234,-9.248966
1421106090322.00,1.1642789,-2.6887088,-9.181906
1421106090337.00,1.2948074,-2.6854157,-9.056168
1421106090357.00,1.3219011,-2.6370661,-9.090297
1421106090376.00,1.2650194,-2.812202,-9.035511
1421106090441.00,1.0065069,-2.713108,-9.138946
1421106090442.00,1.0466236,-2.7156527,-9.112001
1421106090442.00,0.95606184,-2.6331742,-9.162597
1421106090457.00,1.0630893,-2.7640023,-9.14658
1421106090477.00,1.0115963,-2.7416985,-9.086704
1421106090497.00,0.93989545,-2.7385552,-9.142987
1421106090517.00,1.0051597,-2.642006,-9.183553
1421106090537.00,1.0596465,-2.632875,-9.08416
1421106090558.00,1.0318043,-2.6934988,-9.101224
1421106090577.00,1.0367441,-2.5809329,-9.135503
1421106090597.00,1.0036628,-2.5463548,-9.197024
1421106090617.00,1.0807526,-2.5951533,-9.153615
1421106090637.00,1.0705737,-2.6589208,-9.267529
1421106090657.00,1.104104,-2.6262887,-9.202713
1421106090677.00,0.90561676,-2.598596,-9.215436
1421106090697.00,0.891546,-2.4903712,-9.172326
1421106090717.00,0.9792636,-2.6393116,-9.262738
1421106090737.00,0.95905566,-2.6415567,-9.265283
1421106090807.00,0.88885164,-2.5701554,-9.141789
1421106090808.00,0.8764275,-2.5065377,-9.184301
1421106090809.00,0.9735754,-2.5411158,-9.186696
1421106090818.00,0.9840537,-2.6042843,-9.154364
1421106090837.00,1.063239,-2.651586,-9.142987
1421106090857.00,1.0585986,-2.6716442,-9.15571
1421106090877.00,1.043031,-2.696792,-9.150771
1421106090899.00,1.1000624,-2.783312,-9.118887
1421106090922.00,1.0331515,-2.7595115,-9.187145
1421106090938.00,1.0704241,-2.8265722,-9.222023
1421106090957.00,1.0118958,-2.7128086,-9.170829
1421106090977.00,1.0098001,-2.648742,-9.153016
1421106090997.00,1.0479708,-2.5959017,-9.183403
1421106091017.00,0.9900412,-2.6931994,-9.301507
1421106091037.00,1.0033635,-2.6075776,-9.124426
1421106091089.00,1.0758128,-2.571802,-9.085057
1421106091090.00,1.140179,-2.79873,-9.120085
1421106091097.00,0.95127183,-2.663112,-9.2311535
1421106091117.00,0.98764616,-2.6075776,-9.158405
1421106091137.00,0.92807007,-2.6226962,-9.164692
1421106091158.00,0.9541159,-2.726131,-9.0920925
1421106091177.00,1.0330019,-2.5728498,-9.057365
1421106091197.00,1.1196716,-2.6988876,-9.181906
1421106091223.00,0.9940828,-2.75068,-9.294322
1421106091238.00,1.0578502,-2.6795778,-9.246572
1421106091257.00,1.0502161,-2.6611662,-9.126222
1421106091277.00,1.0786569,-2.648742,-9.0406
1421106091297.00,1.0600955,-2.658322,-9.111702
1421106091317.00,1.0005194,-2.614463,-9.1852
1421106091445.00,1.0163864,-2.5800347,-9.152267
1421106091446.00,0.9906399,-2.590513,-9.171577
1421106091447.00,1.0157876,-2.4459138,-9.341175
1421106091448.00,0.9821077,-2.6300309,-9.24732
1421106091449.00,0.9957294,-2.61117,-9.171877
1421106091450.00,0.94079363,-2.6728418,-9.07937
1421106091457.00,0.9701326,-2.6604176,-9.1395445
1421106091478.00,0.891546,-2.6729915,-9.159452
1421106091498.00,0.98105985,-2.6312284,-9.045839
1421106091517.00,0.98135924,-2.7894492,-9.121432
1421106091540.00,1.036295,-2.6423054,-9.101973
1421106091564.00,1.0939251,-2.717449,-9.134155
1421106091577.00,0.95321774,-2.6393116,-9.243129
1421106091597.00,1.1072475,-2.639012,-9.214239
1421106091617.00,1.0162368,-2.6939478,-9.201066
1421106091637.00,1.0267149,-2.5680597,-9.215885
1421106091658.00,0.97597045,-2.6095235,-9.1483755
1421106091714.00,1.0371932,-2.6930497,-9.272018
1421106091716.00,0.8428972,-2.5652156,-9.250314
1421106091717.00,0.9809102,-2.6045837,-9.203312
1421106091737.00,0.9716295,-2.5967999,-9.233699
1421106091757.00,1.0626402,-2.6605673,-9.164392
1421106091777.00,0.93121356,-2.6975405,-9.221873
1421106091798.00,0.941542,-2.6819727,-9.152567
1421106091817.00,1.0008187,-2.615511,-9.215735
1421106091839.00,1.0142908,-2.7631042,-9.238338
1421106091862.00,0.9767189,-2.6993368,-9.211694
1421106091877.00,0.9548643,-2.6192532,-9.148076
1421106091898.00,1.1038046,-2.6397605,-9.145382
1421106091917.00,1.0440788,-2.6714945,-9.326655
1421106091940.00,1.119971,-2.4836352,-9.12697
1421106091957.00,0.9443861,-2.485731,-9.250014
1421106091977.00,1.0476713,-2.6285338,-9.193731
1421106091999.00,0.970432,-2.5777895,-9.1958275
1421106092059.00,1.0668315,-2.597698,-9.193432
1421106092060.00,1.013243,-2.6141639,-9.215735
1421106092061.00,1.1530522,-2.6433532,-9.248668
1421106092082.00,1.0235715,-2.649191,-9.142987
1421106092098.00,0.96294755,-2.5978477,-9.220825
1421106092117.00,0.9009764,-2.6840684,-9.143436
1421106092137.00,0.9412427,-2.6777816,-9.141789
1421106092157.00,1.0984159,-2.6161098,-9.251961
1421106092177.00,1.2199631,-2.5689578,-9.173524
1421106092197.00,1.0602452,-2.6545799,-9.115893
1421106092217.00,0.99752563,-2.587669,-9.117391
1421106092237.00,1.018033,-2.665956,-9.028175
1421106092257.00,1.0502161,-2.4260051,-9.065598
1421106092277.00,1.0166858,-2.5721014,-9.2151375
1421106092297.00,1.0108479,-2.534829,-9.223819
1421106092319.00,1.0457253,-2.685266,-9.210347
1421106092426.00,0.9963281,-2.6123676,-9.205557
1421106092428.00,0.97477293,-2.57749,-9.15601
1421106092429.00,0.9900412,-2.6099725,-9.160351
1421106092429.00,1.0169852,-2.5951533,-9.235345
1421106092430.00,0.97237796,-2.564018,-9.183403
1421106092437.00,1.1283536,-2.5670118,-9.16559
1421106092457.00,1.0120454,-2.6093738,-9.164842
1421106092477.00,1.0413845,-2.7595115,-9.042846
1421106092501.00,1.1341914,-2.6957443,-9.201815
1421106092523.00,0.97881454,-2.7695408,-9.219927
1421106092537.00,1.1831397,-2.7337651,-9.206006
1421106092558.00,1.0614427,-2.7023306,-9.04075
1421106092577.00,1.0463241,-2.6310787,-9.229208
1421106092599.00,1.1413765,-2.619852,-9.110206
1421106092617.00,1.1639795,-2.6176066,-9.187594
1421106092647.00,1.1350895,-2.6219475,-9.173524
1421106092657.00,1.1470647,-2.6075776,-9.295819
1421106092787.00,1.0451267,-2.67374,-9.249415
1421106092788.00,0.91893905,-2.6749375,-9.119186
1421106092789.00,1.0166858,-2.5966501,-9.101523
1421106092790.00,1.0301578,-2.674189,-9.268875
1421106092793.00,1.1126362,-2.692002,-9.121881
1421106092795.00,1.0726694,-2.6493406,-9.165291
1421106092797.00,1.1347902,-2.4989035,-9.272168
1421106092819.00,1.1109897,-2.6271868,-9.193731
1421106092843.00,1.0508149,-2.6436524,-9.212442
1421106092858.00,1.2042458,-2.5806336,-9.117091
1421106092878.00,1.1129357,-2.569856,-9.125025
1421106092897.00,1.3073813,-2.6934988,-9.166637
1421106092917.00,1.4256353,-2.6319768,-9.060958
1421106092938.00,1.2626244,-2.7152038,-9.097931
1421106092957.00,1.3268409,-2.562671,-9.039253
1421106093050.00,1.2745994,-2.6096733,-9.119186
1421106093052.00,1.2668157,-2.7107131,-9.180409
1421106093054.00,1.147364,-2.6858647,-9.220675
1421106093056.00,1.1591895,-2.6848168,-9.122929
1421106093061.00,1.1079959,-2.6449997,-9.217832
1421106093078.00,1.0002201,-2.5965006,-9.238788
1421106093097.00,1.1332933,-2.4715104,-9.279054
1421106093117.00,1.1479628,-2.5719516,-9.173674
1421106093139.00,1.0681787,-2.6705964,-9.207204
1421106093157.00,1.1418256,-2.528392,-9.162895
1421106093177.00,1.0910811,-2.5753944,-9.151071
1421106093197.00,1.1481125,-2.6402097,-9.131761
1421106093218.00,1.1064991,-2.4987538,-9.2569
1421106093237.00,1.1302996,-2.6629624,-9.117241
1421106093257.00,1.113684,-2.5286915,-9.071286
1421106093277.00,1.1044034,-2.6494904,-9.188193
1421106093391.00,1.1657758,-2.680476,-9.278605
1421106093392.00,1.129551,-2.633324,-9.2151375
1421106093393.00,1.0047107,-2.6018894,-9.162297
1421106093394.00,1.0903326,-2.602039,-9.289233
1421106093395.00,0.9939331,-2.6385632,-9.278456
1421106093403.00,1.0886861,-2.7385552,-9.235495
1421106093417.00,1.0849439,-2.699636,-9.239387
1421106093443.00,1.0868897,-2.6081762,-9.057365
1421106093457.00,1.1117381,-2.6902056,-8.982072
1421106093478.00,1.0870395,-2.625091,-9.014255
1421106093499.00,1.1743081,-2.6547294,-9.145681
1421106093518.00,1.142574,-2.5634193,-9.142239
1421106093537.00,1.0864407,-2.5795858,-9.089997
1421106093558.00,1.215173,-2.6625133,-9.238039
1421106093578.00,1.0379416,-2.689607,-9.234746
1421106093597.00,1.1159294,-2.68332,-9.1849
1421106093806.00,1.0761123,-2.5830286,-9.211694
1421106093809.00,1.2298425,-2.7563682,-9.296867
1421106093811.00,1.2145743,-2.564018,-9.166039
1421106093813.00,1.1795471,-2.6129663,-9.094788
1421106093814.00,1.246907,-2.6209,-9.24717
1421106093814.00,1.0713222,-2.6255403,-9.136849
1421106093815.00,1.2680131,-2.7006838,-9.123078
1421106093816.00,1.0653347,-2.680925,-9.1129
1421106093817.00,1.0615925,-2.689607,-9.144633
1421106093821.00,1.0972183,-2.7113118,-9.200916
1421106093822.00,1.0936258,-2.6752367,-9.05048
1421106093837.00,1.119522,-2.6744883,-9.109457
1421106093862.00,1.1273057,-2.608326,-9.228459
1421106093877.00,1.0985656,-2.4716601,-9.124126
1421106093898.00,0.98944247,-2.40924,-9.115893
1421106093918.00,1.0726694,-2.5634193,-9.231603
1421106093990.00,1.217119,-2.5938063,-9.197623
1421106093993.00,1.1308982,-2.6556275,-9.084758
1421106093994.00,1.1740086,-2.6951454,-9.024433
1421106093998.00,1.126707,-2.6099725,-9.18026
1421106094017.00,1.1865824,-2.5399182,-9.262439
1421106094038.00,1.142574,-2.5942552,-9.142239
1421106094065.00,1.085393,-2.6545799,-9.228759
1421106094077.00,1.1975098,-2.652634,-9.134604
1421106094099.00,1.1644286,-2.5749454,-9.21858
1421106094118.00,1.0481204,-2.5617728,-9.176218
1421106094138.00,1.0765613,-2.5735981,-9.126072
1421106094158.00,1.1389815,-2.6057813,-9.170529
1421106094178.00,1.1280541,-2.6536818,-9.212592
1421106094197.00,1.2304413,-2.6671536,-9.134604
1421106094218.00,1.1530522,-2.6662555,-9.138646
1421106094238.00,1.0184821,-2.603985,-9.134305
1421106094258.00,1.1413765,-2.5731492,-9.184451
1421106094342.00,1.0749147,-2.6273365,-9.222322
1421106094342.00,1.0843451,-2.5719516,-9.1307125
1421106094343.00,1.045426,-2.6068292,-9.178463
1421106094344.00,1.0753638,-2.6855652,-9.060658
1421106094357.00,1.087788,-2.6014402,-9.02608
1421106094379.00,1.090632,-2.7119105,-9.14149
1421106094398.00,1.1157798,-2.6686506,-9.183852
1421106094417.00,1.0916798,-2.669399,-9.258697
1421106094438.00,1.1024574,-2.5830286,-9.065897
1421106094459.00,1.1234138,-2.6542804,-9.105415
1421106094478.00,1.1976595,-2.653532,-9.202563
1421106094499.00,1.1289524,-2.602488,-9.165291
1421106094518.00,1.109343,-2.6729915,-9.173973
1421106094537.00,1.1870315,-2.744393,-9.136102
1421106094560.00,1.108894,-2.737657,-9.219927
1421106094577.00,1.0865904,-2.6779313,-9.190438
1421106094597.00,1.1599379,-2.685266,-9.191037
1421106094660.00,1.22625,-2.6006918,-9.269175
1421106094662.00,1.18299,-2.6791286,-9.30974
1421106094663.00,1.219514,-2.6128166,-9.18924
1421106094684.00,1.1838881,-2.5997937,-9.12727
1421106094697.00,1.0960208,-2.7009833,-9.145232
1421106094717.00,1.07237,-2.561174,-9.165441
1421106094742.00,0.9991722,-2.647245,-9.197623
1421106094764.00,1.1259586,-2.5593777,-9.179511
1421106094782.00,1.1045531,-2.6009912,-9.116343
1421106094799.00,1.1106904,-2.5056396,-9.084608
1421106094817.00,1.2184662,-2.5366251,-9.156309
1421106094838.00,1.1340418,-2.5741968,-9.158555
1421106094858.00,1.1246114,-2.6461973,-9.19463
1421106094878.00,1.2485536,-2.5066874,-9.212442
1421106094899.00,1.262774,-2.5301886,-9.207503
1421106094919.00,1.1451187,-2.5939558,-9.22786
1421106094943.00,1.1096425,-2.7152038,-9.163644
1421106095026.00,1.249302,-2.6345215,-9.173674
1421106095027.00,1.205593,-2.5336313,-9.214239
1421106095028.00,1.0876383,-2.7128086,-9.107061
1421106095029.00,1.0976673,-2.6300309,-9.170231
1421106095042.00,1.1463162,-2.5890162,-9.0623045
1421106095058.00,1.0999128,-2.5870702,-9.127869
1421106095079.00,1.1054512,-2.5969496,-9.22801
1421106095101.00,1.1103909,-2.6647587,-9.104517
1421106095118.00,1.1011102,-2.7045758,-9.234896
1421106095138.00,1.2379258,-2.6084757,-9.186846
1421106095158.00,1.1249107,-2.608326,-9.069639
1421106095178.00,1.1413765,-2.715054,-9.248817
1421106095198.00,1.0563533,-2.7014322,-9.241931
1421106095220.00,1.1826906,-2.5218058,-9.192534
1421106095246.00,1.0927277,-2.6641598,-9.217532
1421106095260.00,1.2138258,-2.599644,-9.289383
1421106095320.00,1.1451187,-2.680476,-9.132509
1421106095322.00,0.9698332,-2.5750952,-9.115744
1421106095323.00,1.1008109,-2.5143213,-9.078022
1421106095339.00,1.2605287,-2.6182053,-9.249565
1421106095358.00,1.0671309,-2.6792784,-9.175919
1421106095378.00,1.1220666,-2.599644,-9.233549
1421106095399.00,1.0693762,-2.5981472,-9.159303
1421106095418.00,1.0794053,-2.5243506,-9.173224
1421106095438.00,1.1802956,-2.496658,-9.14149
1421106095463.00,1.0367441,-2.6226962,-9.052276
1421106095478.00,1.2376263,-2.5795858,-9.101823
1421106095499.00,1.1481125,-2.612218,-9.256302
1421106095520.00,1.0609937,-2.652035,-9.084758
1421106095538.00,0.97477293,-2.5366251,-9.1588545
1421106095558.00,1.1801459,-2.6854157,-9.210796
1421106095578.00,1.1530522,-2.7231371,-9.26199
1421106095638.00,1.1277548,-2.628085,-9.170679
1421106095639.00,1.0981164,-2.4207659,-9.002579
1421106095640.00,1.1048524,-2.5560846,-9.105116
1421106095659.00,1.1784993,-2.796335,-9.087603
1421106095678.00,1.1461666,-2.6836195,-9.11754
1421106095698.00,1.0201286,-2.6264384,-9.197024
1421106095718.00,1.1400293,-2.602039,-9.163045
1421106095739.00,1.151705,-2.653981,-9.254505
1421106095759.00,1.1066487,-2.546804,-9.292077
1421106095778.00,1.1322455,-2.5951533,-9.195678
1421106095801.00,1.0568024,-2.5637188,-9.165441
1421106095818.00,1.1100916,-2.6464965,-9.221873
1421106095838.00,1.0955718,-2.5849745,-9.190289
1421106095858.00,1.1530522,-2.6051824,-9.209449
1421106095878.00,1.2025992,-2.562072,-9.082513
1421106095898.00,1.1392808,-2.6077273,-9.12203
1421106095965.00,1.2008029,-2.6158104,-9.134155
1421106095966.00,1.1087444,-2.6216483,-9.126821
1421106095967.00,1.0901829,-2.6360183,-9.153316
1421106095978.00,1.0585986,-2.528991,-9.05991
1421106095998.00,1.0548564,-2.5098307,-9.109607
1421106096018.00,1.1412268,-2.5729995,-9.182055
1421106096038.00,1.1705658,-2.6842182,-9.119636
1421106096058.00,1.1466156,-2.6325755,-9.161099
1421106096078.00,1.133892,-2.7288253,-9.166339
1421106096098.00,1.1479628,-2.5990453,-9.126821
1421106096118.00,1.214724,-2.7081683,-9.220077
1421106096138.00,1.0943742,-2.6572742,-9.160501
1421106096158.00,1.0798545,-2.6210494,-9.265882
1421106096178.00,1.0813513,-2.6695487,-9.125772
1421106096198.00,1.0623409,-2.608326,-9.188343
1421106096219.00,1.2388239,-2.64964,-9.229507
1421106096239.00,1.1478131,-2.5909622,-9.078621
1421106096298.00,1.2436138,-2.6524842,-9.0694895
1421106096299.00,1.1491603,-2.647694,-9.166787
1421106096300.00,1.2332854,-2.7601104,-9.164243
1421106096322.00,1.0886861,-2.6324258,-9.102721
1421106096341.00,1.0798545,-2.5490491,-9.2449255
1421106096358.00,1.1246114,-2.6523345,-9.130263
1421106096379.00,1.0683284,-2.5219555,-9.089848
1421106096398.00,1.1410772,-2.6279352,-9.092392
1421106096418.00,1.181493,-2.6566753,-9.166787
1421106096438.00,1.1398796,-2.6788294,-9.204209
1421106096458.00,1.1582913,-2.5815318,-9.223519
1421106096478.00,1.1894265,-2.4887247,-9.184451
1421106096501.00,1.058898,-2.5649161,-9.123078
1421106096519.00,1.1731105,-2.6834698,-9.106463
1421106096539.00,1.1084449,-2.6048832,-9.196426
1421106096615.00,1.2235556,-2.5682094,-9.102272
1421106096617.00,1.0750644,-2.5734484,-9.170979
1421106096618.00,1.1184741,-2.6830206,-9.193132
1421106096619.00,1.1042536,-2.627037,-9.147778
1421106096641.00,1.1240126,-2.6271868,-9.151669
1421106096658.00,1.0768607,-2.5893154,-9.18924
1421106096680.00,1.1364368,-2.6285338,-9.156309
1421106096698.00,1.0979668,-2.6828709,-9.144633
1421106096718.00,1.0591974,-2.5280929,-9.120534
1421106096738.00,1.119522,-2.556833,-8.986263
1421106096758.00,1.2502002,-2.6375153,-9.217682
1421106096778.00,1.0903326,-2.6592202,-9.264833
1421106096798.00,1.1928694,-2.670746,-9.301357
1421106096819.00,1.2253518,-2.699187,-9.261091
1421106096841.00,1.2133768,-2.664609,-9.139395
1421106096858.00,1.1160791,-2.531386,-9.113948
1421106096878.00,1.2070899,-2.6325755,-9.088799
1421106096898.00,1.2100836,-2.5709038,-9.270372
1421106096971.00,1.146915,-2.6018894,-9.246721
1421106096972.00,1.1617341,-2.6508377,-9.21379
1421106096973.00,1.0668315,-2.5695565,-9.159602
1421106096978.00,1.0861413,-2.5706043,-9.106912
1421106096998.00,1.1166779,-2.5629702,-9.206156
1421106097019.00,1.2350817,-2.5256977,-9.08401
1421106097038.00,1.1307486,-2.5893154,-9.154513
1421106097061.00,1.1455678,-2.6411078,-9.252708
1421106097079.00,1.1886781,-2.6758356,-9.160501
1421106097099.00,1.1804452,-2.5960515,-9.202414
1421106097118.00,1.1249107,-2.6204507,-9.164842
1421106097139.00,1.2259506,-2.615062,-9.140293
1421106097158.00,1.1385324,-2.5403674,-9.1765175
1421106097178.00,1.2316388,-2.6047335,-9.171128
1421106097199.00,1.1398796,-2.6255403,-9.192085
1421106097264.00,1.1654763,-2.6363177,-9.240584
1421106097264.00,1.1446697,-2.6533823,-9.170529
1421106097265.00,1.2181668,-2.6658065,-9.053923
1421106097278.00,1.151705,-2.5432115,-9.139844
1421106097299.00,1.2069402,-2.6158104,-9.081465
1421106097318.00,1.2466077,-2.638114,-9.143586
1421106097338.00,1.2516971,-2.5920098,-9.346115
1421106097358.00,1.2648697,-2.6417065,-9.229208
1421106097381.00,1.1755055,-2.743944,-9.177715
1421106097400.00,1.115181,-2.5256977,-9.138496
1421106097423.00,1.1819421,-2.6096733,-9.242979
1421106097439.00,1.1789484,-2.663561,-9.257948
1421106097459.00,1.0445279,-2.5524921,-9.1676855
1421106097478.00,1.1843371,-2.6908045,-9.107361
1421106097499.00,1.1784993,-2.7243347,-9.149274
1421106097519.00,1.10126,-2.6129663,-9.141191
1421106097575.00,1.0987152,-2.6702971,-9.153016
1421106097576.00,1.2037967,-2.5325835,-9.162746
1421106097581.00,1.1380833,-2.6884093,-9.174421
1421106097598.00,1.2048445,-2.5246499,-9.236692
1421106097618.00,1.1379336,-2.6327252,-9.147179
1421106097638.00,1.2455598,-2.5897646,-9.168434
1421106097658.00,1.1395802,-2.5518932,-9.274264
1421106097687.00,1.0424323,-2.7792704,-9.193282
1421106097702.00,1.1026071,-2.705923,-9.255254
1421106097720.00,1.1907737,-2.5878186,-9.235944
1421106097740.00,1.1518548,-2.5438101,-9.175919
1421106097758.00,1.1530522,-2.6334736,-9.032217
1421106097778.00,1.0356963,-2.7108626,-9.089997
1421106097798.00,1.0915302,-2.651586,-9.069041
1421106097818.00,1.2463083,-2.6418562,-9.183104
1421106097838.00,1.2231065,-2.4903712,-9.298064
1421106097858.00,1.0562036,-2.633324,-9.276509
1421106097931.00,1.206042,-2.5731492,-9.162895
1421106097932.00,1.0951227,-2.7616072,-9.144783
1421106097933.00,1.1344908,-2.6023383,-9.171428
1421106097939.00,1.1603869,-2.625091,-9.228759
1421106097958.00,1.1207194,-2.588118,-9.277857
1421106097978.00,1.215173,-2.6129663,-9.197773
1421106097999.00,1.0999128,-2.6292825,-9.234447
1421106098018.00,1.1189232,-2.6473947,-9.170979
1421106098041.00,1.0825489,-2.6325755,-9.1500225
1421106098060.00,1.0184821,-2.654879,-9.088201
1421106098078.00,1.0843451,-2.6463468,-9.099876
1421106098099.00,1.1689192,-2.7240353,-9.087603
1421106098119.00,1.2302916,-2.6503885,-9.172176
1421106098142.00,1.1606864,-2.6511369,-9.252858
1421106098158.00,1.1225157,-2.5191114,-9.289233
1421106098222.00,1.2018508,-2.5508454,-9.159153
1421106098223.00,1.2780423,-2.6509871,-9.215885
1421106098223.00,1.2091855,-2.5577312,-9.188942
1421106098242.00,1.1476635,-2.4879763,-9.098081
1421106098259.00,1.1337423,-2.5423133,-9.092242
1421106098278.00,1.1208692,-2.6897566,-9.116043
1421106098298.00,1.1976595,-2.5517435,-9.186247
1421106098320.00,1.0939251,-2.6664052,-9.142538
1421106098340.00,1.0578502,-2.672243,-9.257499
1421106098359.00,1.1696677,-2.472708,-9.113199
1421106098378.00,1.1526031,-2.5758436,-9.250913
1421106098398.00,1.1837384,-2.5848248,-9.190588
1421106098418.00,1.111289,-2.575544,-9.1025715
1421106098440.00,1.1802956,-2.6057813,-9.10302
1421106098458.00,1.0820998,-2.601141,-9.182804
1421106098479.00,1.1638298,-2.642006,-9.245823
1421106098499.00,1.0298584,-2.6393116,-9.196575
1421106098558.00,1.1114388,-2.64964,-9.23295
1421106098562.00,1.214724,-2.5285418,-9.233399
1421106098563.00,1.1533515,-2.5173151,-9.113948
1421106098583.00,1.1506572,-2.5806336,-9.2360935
1421106098599.00,1.0978171,-2.5791366,-9.215735
1421106098619.00,1.0831475,-2.6081762,-9.201964
1421106098638.00,1.1752062,-2.610272,-9.268725
1421106098658.00,1.0556048,-2.5926087,-9.187445
1421106098679.00,1.0847942,-2.6493406,-9.138496
1421106098704.00,1.1533515,-2.6096733,-9.120983
1421106098719.00,1.1240126,-2.634821,-9.103918
1421106098738.00,1.079555,-2.548151,-9.134006
1421106098759.00,1.0820998,-2.6206005,-9.087303
1421106098778.00,1.0630893,-2.6319768,-9.242829
1421106098799.00,1.1485616,-2.5596771,-9.105565
1421106098818.00,1.1189232,-2.5969496,-9.141041
1421106098838.00,1.1190729,-2.5807831,-9.107061
1421106098900.00,1.1701168,-2.5882676,-9.276958
1421106098902.00,1.160836,-2.6340723,-9.223519
1421106098902.00,1.291664,-2.612218,-9.24717
1421106098930.00,1.22625,-2.5797355,-9.097182
1421106098942.00,1.1542497,-2.615062,-9.089249
1421106099059.00,1.1846366,-2.6569748,-9.135203
1421106099060.00,1.2325369,-2.6360183,-9.15586
1421106099063.00,1.1871812,-2.5240512,-9.272468
1421106099064.00,1.2090358,-2.657424,-9.075927
1421106099064.00,1.1705658,-2.4560926,-9.009913
1421106099066.00,1.1862831,-2.6288333,-9.113199
1421106099079.00,1.149759,-2.596351,-9.160051
1421106099115.00,1.2169693,-2.6433532,-9.076376
1421106099119.00,1.1674223,-2.6435027,-9.090446
1421106099143.00,1.187331,-2.6149123,-9.14628
1421106099221.00,0.9508228,-2.6435027,-9.210946
1421106099222.00,1.1264076,-2.6812243,-9.235644
1421106099223.00,1.2084371,-2.7527757,-9.115594
1421106099224.00,1.2844789,-2.690056,-9.06006
1421106099243.00,1.2837305,-2.7316694,-9.136551
1421106099259.00,1.2157718,-2.6544302,-9.2569
1421106099278.00,1.0114467,-2.6593697,-9.171577
1421106099298.00,1.0925779,-2.6797276,-9.183104
1421106099319.00,1.1283536,-2.6345215,-9.108409
1421106099339.00,1.1078463,-2.6915529,-9.059311
1421106099359.00,1.0306069,-2.719844,-9.108708
1421106099379.00,1.1228151,-2.6209,-9.088201
1421106099399.00,1.1350895,-2.5908124,-9.081465
1421106099419.00,0.90756273,-2.6806257,-9.195528
1421106099439.00,1.1383827,-2.660717,-9.231902
1421106099459.00,1.1416758,-2.7571166,-9.127869
1421106099478.00,1.1747571,-2.649191,-9.219777
1421106099550.00,1.1229647,-2.6973908,-9.16095
1421106099551.00,1.1472144,-2.6586213,-9.163943
1421106099552.00,1.1508069,-2.6268873,-9.198821
1421106099559.00,1.1776012,-2.6256897,-9.210647
1421106099578.00,1.1906241,-2.5783882,-9.193282
1421106099598.00,1.2557387,-2.6676028,-9.046886
1421106099619.00,1.2841796,-2.5483007,-9.209748
1421106099638.00,1.2693603,-2.6119184,-9.135203
1421106099658.00,1.1684701,-2.719395,-9.239686
1421106099681.00,1.1564951,-2.5396187,-9.196575
1421106099704.00,1.22146,-2.6069787,-9.210497
1421106099719.00,1.196911,-2.5439599,-9.210197
1421106099739.00,1.1511062,-2.5806336,-9.224867
1421106099759.00,1.0635383,-2.5503964,-9.148825
1421106099778.00,1.2549902,-2.4742048,-9.215286
1421106099864.00,1.1099418,-2.6075776,-9.216784
1421106099865.00,1.1187735,-2.6402097,-9.226812
1421106099866.00,1.0855426,-2.6783803,-9.19463
1421106099867.00,1.2186159,-2.6159601,-9.257199
1421106099879.00,1.1442206,-2.5057893,-9.205257
1421106099900.00,1.2593312,-2.5108786,-9.236992
1421106099919.00,1.1026071,-2.629432,-9.172027
1421106099940.00,1.11084,-2.538122,-9.168584
1421106099959.00,1.1907737,-2.5710535,-9.170979
1421106099979.00,1.1204201,-2.6176066,-9.138197
1421106100002.00,1.1090437,-2.7268794,-9.062604
1421106100019.00,1.2244537,-2.7117608,-9.217233
1421106100039.00,1.2645704,-2.7690916,-9.174272
1421106100059.00,1.2713063,-2.6099725,-9.150921
1421106100079.00,1.1554472,-2.615511,-9.0760765
1421106100099.00,1.113684,-2.574646,-8.97818
1421106100120.00,1.1455678,-2.6514363,-9.143886
1421106100206.00,1.1575428,-2.6677523,-9.04539
1421106100207.00,1.2225078,-2.6033862,-9.073381
1421106100208.00,1.1919713,-2.6006918,-9.170829
1421106100209.00,1.1120375,-2.5700057,-9.267379
1421106100219.00,1.1398796,-2.669848,-9.086255
1421106100239.00,1.151705,-2.655478,-9.220526
1421106100259.00,1.1861334,-2.5737479,-9.0004835
1421106100282.00,1.196911,-2.6755362,-9.1129
1421106100299.00,1.2789404,-2.5993447,-9.220675
1421106100321.00,1.2543914,-2.6358688,-9.251062
1421106100339.00,1.2410692,-2.6458979,-9.11275
1421106100359.00,1.2519965,-2.7114615,-9.094937
1421106100379.00,1.0816507,-2.5887167,-9.212143
1421106100399.00,1.1659255,-2.7292745,-9.103169
1421106100419.00,1.2463083,-2.6141639,-9.253457
1421106100441.00,1.1798465,-2.5532405,-9.129964
1421106100459.00,1.1859838,-2.6101222,-9.173674
1421106100526.00,1.2061917,-2.662663,-9.152866
1421106100527.00,1.22625,-2.655478,-9.219028
1421106100528.00,1.317111,-2.6346712,-9.270522
1421106100539.00,1.1750565,-2.6282346,-9.073232
1421106100559.00,1.2470567,-2.588118,-9.182954
1421106100579.00,1.2802876,-2.6373656,-9.114396
1421106100599.00,1.1728112,-2.5580306,-9.129365
1421106100619.00,1.1252102,-2.4748037,-9.186696
1421106100639.00,1.1967614,-2.5715024,-9.1307125
1421106100659.00,1.2680131,-2.7071204,-9.200169
1421106100679.00,1.1545491,-2.5098307,-9.179361
1421106100700.00,1.1027569,-2.5590785,-9.207354
1421106100719.00,1.1922706,-2.5744963,-9.223519
1421106100739.00,1.2422667,-2.6273365,-9.1853485
1421106100759.00,1.1939173,-2.6780808,-9.153166
1421106100780.00,1.1606864,-2.6220973,-9.172925
1421106100843.00,1.2247531,-2.6622138,-9.1202345
1421106100844.00,1.1934682,-2.6750872,-9.158106
1421106100845.00,1.2237053,-2.6134155,-9.089548
1421106100866.00,1.1422746,-2.588567,-9.138496
1421106100879.00,1.2434642,-2.623145,-9.147478
1421106100899.00,1.1690689,-2.5086334,-9.16559
1421106100919.00,1.1542497,-2.5207582,-9.192983
1421106100939.00,1.1205697,-2.5026457,-9.189989
1421106100960.00,1.176703,-2.596351,-9.181308
1421106100981.00,1.1807446,-2.5385711,-9.196725
1421106101003.00,1.1520044,-2.4927664,-9.140891
1421106101020.00,1.1617341,-2.5973988,-9.177416
1421106101039.00,1.198857,-2.6027875,-9.05991
1421106101060.00,1.2861255,-2.5634193,-9.172326
1421106101079.00,1.1069481,-2.6680517,-9.272617
1421106101101.00,1.2213103,-2.597249,-9.217233
1421106101121.00,1.3518388,-2.6240432,-9.135952
1421106101195.00,1.2898678,-2.7683432,-9.236243
1421106101196.00,1.3287867,-2.8229797,-9.136551
1421106101198.00,1.1975098,-2.6430538,-9.133107
1421106101199.00,1.2448114,-2.695295,-9.170829
1421106101219.00,1.1681708,-2.6851163,-9.137299
1421106101239.00,1.1773018,-2.5825796,-9.173524
1421106101260.00,1.2298425,-2.6369164,-9.233849
1421106101279.00,1.2843292,-2.5821304,-9.120833
1421106101299.00,1.2609777,-2.537673,-9.152866
1421106101322.00,1.2663666,-2.5700057,-9.246572
1421106101339.00,1.1262579,-2.7207422,-9.207802
1421106101359.00,1.1978091,-2.664609,-9.060808
1421106101379.00,1.2823833,-2.5456064,-9.149573
1421106101399.00,1.1662248,-2.537074,-9.267529
1421106101419.00,1.2572355,-2.610272,-9.202713
1421106101440.00,1.2205619,-2.588118,-9.142688
1421106101460.00,1.2410692,-2.5801845,-9.179511
1421106101482.00,1.1666739,-2.650688,-9.25226
1421106101552.00,1.1035053,-2.5721014,-9.221125
1421106101553.00,1.0614427,-2.590513,-9.265283
1421106101554.00,1.111289,-2.5716522,-9.089997
1421106101562.00,1.2287947,-2.6096733,-9.1621475
1421106101583.00,1.2413685,-2.5744963,-9.248817
1421106101601.00,1.1135345,-2.5414152,-9.172925
1421106101621.00,1.1847862,-2.491868,-9.094937
1421106101647.00,1.1196716,-2.6312284,-9.202414
1421106101659.00,1.212778,-2.7137067,-9.200617
1421106101679.00,1.1985576,-2.5987458,-9.192235
1421106101699.00,1.1081456,-2.6042843,-9.141939
1421106101722.00,1.1720626,-2.725083,-9.140293
1421106101739.00,1.1177257,-2.5947044,-9.129664
1421106101759.00,1.2160711,-2.7325675,-9.174571
1421106101817.00,1.1677217,-2.647694,-9.226364
1421106101818.00,1.1722124,-2.4273522,-9.202713
1421106101821.00,1.1520044,-2.6140141,-9.129515
1421106101840.00,1.1784993,-2.564018,-9.248219
1421106101859.00,1.1594888,-2.5128245,-9.091345
1421106101879.00,1.2283456,-2.4797432,-9.256002
1421106101899.00,1.2678635,-2.5710535,-9.2118435
1421106101919.00,1.2431648,-2.6786797,-9.209149
1421106101939.00,1.2130774,-2.6441016,-9.151968
1421106101960.00,1.1039543,-2.7128086,-9.206455
1421106101980.00,1.1557466,-2.5363257,-9.1114025
1421106101999.00,1.1963123,-2.628085,-9.178463
1421106102019.00,1.1602373,-2.6084757,-9.129964
1421106102040.00,1.2069402,-2.6186545,-9.085956
1421106102059.00,1.3383669,-2.625091,-9.129215
1421106102128.00,1.2192147,-2.7701395,-9.272917
1421106102129.00,1.1707155,-2.6417065,-9.246122
1421106102130.00,1.0553055,-2.6298811,-9.150322
1421106102139.00,1.1823912,-2.6632617,-9.225765
1421106102161.00,1.1202704,-2.623145,-9.188493
1421106102181.00,1.2145743,-2.6946964,-9.129365
1421106102199.00,1.2606784,-2.5077353,-9.1852
1421106102219.00,1.1463162,-2.5988955,-9.113648
1421106102242.00,1.0686278,-2.5920098,-9.132957
1421106102261.00,1.1599379,-2.6479936,-9.136999
1421106102283.00,1.2289444,-2.6397605,-9.190588
1421106102303.00,1.0710227,-2.6430538,-9.1378975
1421106102319.00,1.1535013,-2.725083,-9.243129
1421106102339.00,1.1885284,-2.5873694,-9.168284
1421106102360.00,1.1970607,-2.5185127,-9.17532
1421106102379.00,1.1150312,-2.4845333,-9.170529
1421106102401.00,1.1515553,-2.590064,-9.202114
1421106102423.00,1.198857,-2.5741968,-9.178463
1421106102483.00,1.1645782,-2.6339228,-9.118737
1421106102484.00,1.2407699,-2.497257,-9.186097
1421106102485.00,1.2266991,-2.4748037,-9.052725
1421106102505.00,1.0578502,-2.4851322,-9.28115
1421106102519.00,1.095422,-2.3592439,-9.174721
1421106102540.00,1.0566527,-2.5503964,-9.112301
1421106102559.00,1.1448194,-2.5786877,-9.233997
1421106102579.00,1.2183166,-2.5494983,-9.140143
1421106102599.00,1.2148737,-2.5656648,-9.150771
1421106102620.00,1.2388239,-2.7599607,-9.080268
1421106102639.00,1.2211605,-2.7066715,-9.168284
1421106102660.00,1.1746074,-2.5734484,-9.142089
1421106102680.00,1.167572,-2.6033862,-9.208251
1421106102699.00,1.1689192,-2.6360183,-9.135203
1421106102719.00,1.1813434,-2.5295897,-9.069191
1421106102799.00,1.3219011,-2.5565336,-9.178912
1421106102799.00,1.3073813,-2.5712032,-9.179511
1421106102801.00,1.2707076,-2.7223887,-9.112001
1421106102801.00,1.2084371,-2.5319848,-9.069191
1421106102820.00,1.1234138,-2.4978557,-9.121582
1421106102840.00,1.1558963,-2.4535477,-9.187145
1421106102860.00,1.2648697,-2.595752,-9.194031
1421106102879.00,1.1382331,-2.60159,-9.22786
1421106102902.00,1.1340418,-2.5873694,-9.16095
1421106102927.00,1.1638298,-2.5547373,-9.213341
1421106102939.00,1.3127701,-2.6126668,-9.095237
1421106102959.00,1.3501923,-2.5839267,-9.063802
1421106102979.00,1.2413685,-2.6117687,-9.183403
1421106102999.00,1.1844869,-2.6551785,-9.200169
1421106103019.00,1.246907,-2.6743386,-9.229807
1421106103040.00,1.1753558,-2.6140141,-9.26648
1421106103059.00,1.2819343,-2.7048752,-9.148076
1421106103126.00,1.3235477,-2.692002,-9.179811
1421106103130.00,1.2756473,-2.6731412,-9.132809
1421106103131.00,1.2509487,-2.5551865,-9.19927
1421106103139.00,1.0505154,-2.515519,-9.240435
1421106103166.00,1.2099339,-2.4797432,-9.239387
1421106103179.00,1.2717553,-2.60638,-9.157806
1421106103200.00,1.2663666,-2.5247996,-9.087603
1421106103220.00,1.2558883,-2.554438,-9.069939
1421106103242.00,1.253643,-2.4999514,-9.111852
1421106103262.00,1.2521461,-2.5586293,-9.182055
1421106103279.00,1.1816428,-2.4682174,-9.043444
1421106103300.00,1.0945239,-2.6095235,-9.161848
1421106103319.00,1.1186239,-2.7595115,-9.055718
1421106103340.00,1.1765534,-2.6795778,-9.094338
1421106103359.00,1.1686199,-2.591411,-9.173823
1421106103379.00,1.2678635,-2.6207502,-9.075178
1421106103449.00,1.1069481,-2.743495,-9.124426
1421106103450.00,1.2814851,-2.759811,-9.156609
1421106103454.00,1.3102254,-2.5471032,-9.085357
1421106103460.00,1.411864,-2.6054819,-9.220526
1421106103480.00,1.3421091,-2.6848168,-9.121731
1421106103500.00,1.2358301,-2.6541307,-9.186397
1421106103520.00,1.3069322,-2.6918523,-9.202114
1421106103540.00,1.1365864,-2.6244924,-9.232501
1421106103563.00,1.162782,-2.6167085,-9.145382
1421106103579.00,1.1997551,-2.4912694,-9.219777
1421106103600.00,1.1437715,-2.6433532,-9.207204
1421106103623.00,1.0907817,-2.5310867,-9.207503
1421106103641.00,1.0566527,-2.5084836,-9.061257
1421106103659.00,1.1226654,-2.5873694,-9.312883
1421106103679.00,1.1532019,-2.6253905,-9.3244095
1421106103700.00,1.1202704,-2.7074199,-9.220376
1421106103768.00,1.0120454,-2.726131,-9.085207
1421106103769.00,1.129102,-2.6590705,-9.129365
1421106103770.00,1.1549982,-2.725083,-9.15601
1421106103779.00,1.081052,-2.547253,-9.178613
1421106103799.00,1.0832973,-2.6512866,-9.230854
1421106103819.00,1.1487112,-2.6399102,-9.09823
1421106103841.00,1.1624826,-2.7048752,-9.123528
1421106103871.00,1.2130774,-2.5767417,-9.120983
1421106103881.00,1.1561956,-2.6870623,-9.106912
1421106103900.00,1.2437636,-2.6595194,-9.062754
1421106103920.00,1.2913646,-2.6327252,-9.117091
1421106103940.00,1.3000466,-2.6764343,-9.201815
1421106103960.00,1.323847,-2.7195446,-9.209599
1421106103980.00,1.321003,-2.6542804,-9.156908
1421106104006.00,1.2874727,-2.6223967,-9.145082
1421106104021.00,1.3207036,-2.700235,-9.133107
1421106104045.00,1.373394,-2.515519,-9.170081
1421106104134.00,1.1605366,-2.5075855,-9.029223
1421106104135.00,1.2058923,-2.511627,-9.104667
1421106104136.00,1.2921131,-2.5171654,-9.184751
1421106104137.00,1.2543914,-2.4959097,-9.058712
1421106104142.00,1.2006532,-2.5384214,-9.105266
1421106104159.00,1.301244,-2.5744963,-9.114995
1421106104183.00,1.3431569,-2.5469537,-9.145681
1421106104200.00,1.3385166,-2.5080345,-9.130862
1421106104227.00,1.334924,-2.631827,-9.137299
1421106104240.00,1.2850777,-2.6658065,-9.08865
1421106104260.00,1.4111155,-2.5800347,-9.242081
1421106104280.00,1.2481046,-2.6220973,-9.154813
1421106104299.00,1.2846286,-2.569407,-9.146729
1421106104319.00,1.2263997,-2.604434,-9.24732
1421106104341.00,1.1490107,-2.550995,-9.2328005
1421106104362.00,1.1892769,-2.567461,-9.103918
1421106104381.00,1.0267149,-2.5363257,-9.134754
1421106104401.00,1.2305909,-2.607278,-9.206156
1421106104472.00,1.339265,-2.699636,-9.138796
1421106104473.00,1.2326866,-2.617008,-9.191636
1421106104474.00,1.2455598,-2.6090744,-9.068143
1421106104480.00,1.2440629,-2.6235943,-9.145382
1421106104501.00,1.2006532,-2.5988955,-9.086704
1421106104522.00,1.2362791,-2.6060805,-9.070238
1421106104542.00,1.2751982,-2.5225544,-9.194929
1421106104572.00,1.2475058,-2.5724006,-9.193282
1421106104582.00,1.0945239,-2.497257,-9.232202
1421106104601.00,1.2428654,-2.538122,-9.096883
1421106104620.00,1.2766951,-2.676584,-9.153765
1421106104640.00,1.1280541,-2.6834698,-9.174421
1421106104660.00,1.2564871,-2.6878107,-9.070238
1421106104682.00,1.2388239,-2.5783882,-9.101374
1421106104700.00,1.2566369,-2.6093738,-9.111253
1421106104789.00,1.2918136,-2.6601183,-9.145681
1421106104790.00,1.2370276,-2.711162,-9.130862
1421106104791.00,1.1681708,-2.6914032,-9.190289
1421106104792.00,1.22146,-2.638713,-9.165291
1421106104800.00,1.2183166,-2.568808,-9.195229
1421106104821.00,1.3112732,-2.5319848,-9.092542
1421106104840.00,1.2225078,-2.5870702,-9.164991
1421106104860.00,1.3391153,-2.5355773,-9.140293
1421106104883.00,1.3352234,-2.609224,-9.239536
1421106104904.00,1.2629237,-2.510579,-9.258697
1421106104921.00,1.2820839,-2.5137227,-9.187894
1421106104940.00,1.2620256,-2.6584716,-9.104816
1421106104960.00,1.2832814,-2.5521927,-9.21888
1421106104980.00,1.2934602,-2.5966501,-9.129964
1421106105000.00,1.2506492,-2.6449997,-9.060359
1421106105020.00,1.2446617,-2.5743465,-9.159752
1421106105043.00,1.1939173,-2.6104217,-8.985515
1421106105111.00,1.1539503,-2.5119264,-9.224717
1421106105112.00,1.3391153,-2.6137147,-9.172775
1421106105113.00,1.2274475,-2.5014482,-9.249565
1421106105120.00,1.285377,-2.6412575,-9.2537565
1421106105142.00,1.2600796,-2.5617728,-9.162597
1421106105161.00,1.2325369,-2.4493566,-9.084458
1421106105180.00,1.2705579,-2.5412655,-9.104068
1421106105201.00,1.2436138,-2.514022,-9.138197
1421106105224.00,1.2457095,-2.6018894,-9.116642
1421106105248.00,1.253194,-2.4803421,-9.145382
1421106105261.00,1.2549902,-2.5686584,-9.199719
1421106105280.00,1.255589,-2.5249493,-9.131311
1421106105300.00,1.1948154,-2.3993604,-9.085357
1421106105320.00,1.2097843,-2.5006998,-9.169782
1421106105340.00,1.1826906,-2.7538233,-9.241482
1421106105360.00,1.1940669,-2.6774821,-9.201365
1421106105380.00,1.1023078,-2.5786877,-9.171278
1421106105435.00,1.1410772,-2.6032364,-9.207802
1421106105436.00,0.9554631,-2.676135,-9.152866
1421106105440.00,1.0488689,-2.6931994,-9.174421
1421106105460.00,1.1322455,-2.574646,-9.221724
1421106105480.00,1.1329939,-2.5252488,-9.193731
1421106105501.00,1.1141331,-2.5858727,-9.182505
1421106105520.00,1.1448194,-2.5797355,-9.164243
1421106105542.00,1.1205697,-2.5209076,-9.17038
1421106105560.00,1.1773018,-2.4834855,-9.096733
1421106105580.00,1.185385,-2.4845333,-9.202264
1421106105600.00,1.095422,-2.5036936,-9.163943
1421106105620.00,1.1687695,-2.614463,-9.230854
1421106105642.00,1.2289444,-2.4730074,-9.188792
1421106105663.00,1.255589,-2.560725,-9.178313
1421106105681.00,1.257535,-2.5122259,-9.162447
1421106105747.00,1.4006374,-2.610272,-9.111253
1421106105748.00,1.3454022,-2.5888665,-9.163195
1421106105749.00,1.1960129,-2.6147625,-9.185798
1421106105760.00,1.1535013,-2.5966501,-9.212892
1421106105780.00,1.257984,-2.6473947,-9.136401
1421106105801.00,1.2201128,-2.5831783,-9.1621475
1421106105820.00,1.314716,-2.5822802,-9.197024
1421106105840.00,1.2731025,-2.5762925,-9.196277
1421106105860.00,1.2732522,-2.6101222,-9.128468
1421106105880.00,1.2903168,-2.628085,-9.109307
1421106105900.00,1.257535,-2.6379642,-9.109158
1421106105921.00,1.402733,-2.5673113,-9.103768
1421106105941.00,1.3684543,-2.5518932,-9.288485
1421106105960.00,1.3338761,-2.5819807,-9.263038
1421106105980.00,1.1885284,-2.582729,-9.214389
1421106106046.00,1.3160633,-2.5593777,-9.134455
1421106106047.00,1.1636801,-2.5463548,-9.180859
1421106106049.00,1.2211605,-2.4734564,-9.137448
1421106106060.00,1.1762539,-2.4899223,-9.156159
1421106106080.00,1.1457175,-2.5553362,-9.066047
1421106106100.00,1.1578423,-2.4915688,-9.14628
1421106106122.00,1.0382409,-2.6026378,-9.202863
1421106106140.00,1.049767,-2.5608747,-9.142239
1421106106161.00,1.1082953,-2.6345215,-9.168284
1421106106182.00,1.2014017,-2.5387206,-9.223519
1421106106200.00,1.1867322,-2.6045837,-9.205407
1421106106220.00,1.2243041,-2.567461,-9.129066
1421106106240.00,1.2930112,-2.6009912,-9.186546
1421106106261.00,1.2904664,-2.7099645,-9.115145
1421106106281.00,1.3843213,-2.6026378,-9.184002
1421106106303.00,1.2558883,-2.6098228,-9.125772
1421106106321.00,1.3003459,-2.51028,-9.136551
1421106106341.00,1.3085788,-2.520309,-9.172027
1421106106413.00,1.3165123,-2.5267456,-9.092991
1421106106414.00,1.4665004,-2.5412655,-9.077872
1421106106415.00,1.5073655,-2.6003923,-9.224118
1421106106420.00,1.4391074,-2.5738976,-9.269025
1421106106440.00,1.4307247,-2.6589208,-9.091644
1421106106460.00,1.5214362,-2.695295,-9.171727
1421106106480.00,1.4859599,-2.5644672,-9.063502
1421106106500.00,1.431623,-2.6209,-9.028924
1421106106520.00,1.5533198,-2.6225464,-9.000334
1421106106541.00,1.4735358,-2.5336313,-9.098829
1421106106560.00,1.6477734,-2.5176146,-9.142388
1421106106580.00,1.5355068,-2.5848248,-9.091045
1421106106601.00,1.6319064,-2.5712032,-9.172326
1421106106620.00,1.6058606,-2.5158184,-9.1765175
1421106106640.00,1.5804135,-2.4417224,-8.991502
1421106106715.00,1.5142511,-2.579436,-9.109906
1421106106716.00,1.5214362,-2.6436524,-9.153465
1421106106717.00,1.5869998,-2.4777975,-9.123078
1421106106721.00,1.4670992,-2.5503964,-9.053773
1421106106740.00,1.4787749,-2.4713607,-9.114845
1421106106761.00,1.515299,-2.5586293,-8.99255
1421106106781.00,1.6467257,-2.506837,-9.049881
1421106106800.00,1.7579443,-2.4912694,-8.974138
1421106106820.00,1.8649718,-2.3385868,-9.078022
1421106106842.00,1.8371297,-2.475103,-9.049881
1421106106860.00,1.9320323,-2.3504124,-9.029673
1421106106880.00,2.0622616,-2.4224126,-9.084758
1421106106900.00,1.8676661,-2.4716601,-9.128917
1421106106920.00,1.984124,-2.5571325,-8.998089
1421106106940.00,2.0392094,-2.501598,-8.983568
1421106106963.00,1.9857706,-2.617906,-9.014105
1421106106982.00,2.0511847,-2.6861641,-8.874296
1421106107043.00,1.954785,-2.6958938,-8.95408
1421106107044.00,2.059118,-2.6426046,-8.979228
1421106107045.00,1.9862196,-2.4730074,-8.996442
1421106107066.00,2.0598664,-2.2619462,-9.167985
1421106107080.00,2.1733305,-2.0073256,-9.210946
1421106107100.00,2.136507,-1.9477496,-8.672516
1421106107120.00,2.3757098,-2.0987856,-8.316556
1421106107142.00,2.6075776,-2.3851402,-8.472082
1421106107160.00,2.7101142,-2.3451731,-9.028625
1421106107180.00,2.910847,-2.3559508,-9.167835
1421106107200.00,3.109334,-2.3174808,-9.228759
1421106107220.00,2.999762,-2.3980134,-9.058862
1421106107240.00,2.9514124,-2.324067,-8.838071
1421106107266.00,2.9782069,-2.3450234,-8.818163
1421106107280.00,2.9142897,-2.3611898,-8.976084
1421106107300.00,2.615511,-2.3556514,-9.015303
1421106107361.00,2.43813,-2.2532644,-9.038055
1421106107362.00,2.3052063,-2.4248075,-8.900791
1421106107363.00,2.1131556,-2.4189696,-8.847053
1421106107386.00,2.100582,-2.4541466,-8.957522
1421106107401.00,2.0648062,-2.3776557,-8.983269
1421106107420.00,1.9776874,-2.4292982,-9.110355
1421106107441.00,2.1469853,-2.270778,-8.958121
1421106107463.00,2.1116588,-2.2917342,-9.082962
1421106107488.00,2.177971,-2.2809567,-9.05467
1421106107500.00,2.2920337,-2.2218297,-9.105865
1421106107520.00,2.266886,-2.3134391,-8.983568
1421106107540.00,2.5634193,-2.3614893,-8.8266945
1421106107561.00,2.7508297,-2.2605991,-8.827293
1421106107581.00,2.6939478,-2.379901,-8.906329
1421106107600.00,2.596351,-2.376608,-8.881781
1421106107621.00,2.5349784,-2.2382956,-8.901389
1421106107717.00,2.5649161,-2.095193,-8.959918
1421106107718.00,2.5268953,-2.0525317,-8.961564
1421106107719.00,2.556833,-2.3266118,-8.873697
1421106107721.00,2.4780967,-1.997596,-8.83852
1421106107721.00,2.3325994,-2.1844075,-8.896899
1421106107741.00,2.3589447,-2.1041744,-9.0358095
1421106107762.00,2.223626,-2.2242248,-9.149124
1421106107781.00,2.321223,-2.4114852,-9.119186
1421106107802.00,2.3995101,-2.457739,-8.812175
1421106107824.00,2.44292,-2.5273445,-8.596623
1421106107841.00,2.642904,-2.513124,-8.788973
1421106107860.00,2.6653574,-2.5104296,-8.865913
1421106107880.00,2.70248,-2.5138724,-8.983418
1421106107900.00,2.79873,-2.4662714,-8.968899
1421106107920.00,2.7767258,-2.4815397,-8.762478
1421106107940.00,2.7036777,-2.451003,-8.751102
1421106108015.00,2.721341,-2.3170316,-8.764424
1421106108015.00,2.6226962,-2.3396347,-8.861722
1421106108017.00,2.6840684,-2.3435266,-8.914113
1421106108021.00,2.7433453,-2.2641916,-8.765472
1421106108040.00,2.6923013,-2.2745202,-8.816965
1421106108060.00,2.7053242,-2.38993,-9.017697
1421106108080.00,2.7969337,-2.3465204,-8.904384
1421106108100.00,2.6279352,-2.3417304,-8.834928
1421106108121.00,2.6921515,-2.3864872,-8.903635
1421106108141.00,2.6544302,-2.392475,-8.819809
1421106108160.00,2.628085,-2.243235,-8.948542
1421106108180.00,2.6054819,-2.343826,-8.917107
1421106108200.00,2.668501,-2.344874,-8.999435
1421106108220.00,2.6565256,-2.2713766,-8.880882
1421106108242.00,2.5836272,-2.0758832,-8.871152
1421106108260.00,2.5084836,-2.175576,-8.891061
1421106108280.00,2.5426126,-2.1854553,-8.928034
1421106108300.00,2.6388624,-2.2487736,-9.019644
1421106108363.00,2.5355773,-2.2791605,-8.9248905
1421106108364.00,2.4201672,-2.3176305,-8.936117
1421106108365.00,2.3628364,-2.2745202,-8.910521
1421106108386.00,2.474654,-2.2305117,-8.846603
1421106108400.00,2.5315356,-2.2382956,-9.007968
1421106108420.00,2.4912694,-2.2613475,-8.935518
1421106108443.00,2.4324417,-2.2680836,-8.892109
1421106108467.00,2.418371,-2.2579048,-8.869805
1421106108480.00,2.361639,-2.2357507,-8.8564825
1421106108501.00,2.2314098,-2.291884,-8.904384
1421106108520.00,2.5066874,-2.3146367,-8.982521
1421106108540.00,2.368824,-2.371219,-9.116193
1421106108560.00,2.3776557,-2.3004162,-9.028027
1421106108580.00,2.3149362,-2.3180795,-9.03102
1421106108601.00,2.3020627,-2.3064039,-8.924741
1421106108622.00,2.2517674,-2.3123913,-9.002429
1421106108697.00,2.2891896,-2.3233187,-8.9683
1421106108698.00,2.294728,-2.233655,-9.009614
1421106108700.00,2.346221,-2.3017635,-9.110953
1421106108702.00,2.3809488,-2.2263203,-9.052126
1421106108721.00,2.4876769,-2.2218297,-9.007818
1421106108740.00,2.4590864,-2.314487,-8.938064
1421106108761.00,2.4165747,-2.1953347,-9.036259
1421106108781.00,2.4713607,-2.345772,-8.88193
1421106108804.00,2.4081922,-2.3584955,-9.023685
1421106108820.00,2.2772145,-2.25536,-9.001382
1421106108841.00,2.3990612,-2.1796174,-9.023835
1421106108861.00,2.402504,-2.1477337,-8.899593
1421106108880.00,2.3230193,-2.2613475,-8.970546
1421106108901.00,2.1838088,-2.320325,-8.937315
1421106108920.00,2.391427,-2.2508693,-8.967852
1421106108973.00,2.1727319,-2.191892,-9.023087
1421106108974.00,2.336192,-2.2598505,-8.899144
1421106108980.00,2.432891,-2.2161415,-8.9425535
1421106109001.00,2.3324497,-2.1230352,-8.967402
1421106109021.00,2.3469694,-2.3460712,-9.052276
1421106109040.00,2.4038513,-2.3793023,-8.948392
1421106109060.00,2.4168742,-2.3194268,-8.9337225
1421106109082.00,2.6119184,-2.1890478,-8.950188
1421106109101.00,2.6000931,-2.2565575,-9.003028
1421106109121.00,2.6071284,-2.2930815,-8.963061
1421106109141.00,2.6966424,-2.2829027,-8.84825
1421106109161.00,2.7430458,-2.3944209,-8.804541
1421106109180.00,2.7878027,-2.2492228,-8.90109
1421106109200.00,2.6423054,-2.1885989,-8.898545
1421106109220.00,2.7601104,-2.3697221,-8.919502
1421106109241.00,2.8012748,-2.2321582,-8.775352
1421106109260.00,2.7265801,-2.3090982,-8.919353
1421106109325.00,2.7331665,-2.360741,-8.906629
1421106109326.00,2.7337651,-2.2972727,-8.966055
1421106109327.00,2.6162596,-2.2561083,-8.810828
1421106109341.00,2.632875,-2.2158422,-8.915461
1421106109361.00,2.5282426,-2.191443,-8.832233
1421106109381.00,2.51507,-2.2806573,-8.843909
1421106109401.00,2.575544,-2.1959336,-8.978929
1421106109421.00,2.6310787,-2.1917422,-8.940458
1421106109441.00,2.56312,-2.2900877,-8.943152
1421106109461.00,2.4993525,-2.3495142,-9.05497
1421106109481.00,2.460134,-2.3400838,-8.90588
1421106109501.00,2.4225624,-2.391427,-8.836575
1421106109523.00,2.3800507,-2.350113,-8.90109
1421106109542.00,2.4420218,-2.382745,-8.910371
1421106109561.00,2.5545876,-2.3559508,-8.883726
1421106109581.00,2.478546,-2.3315516,-8.874146
1421106109601.00,2.5230033,-2.283651,-8.950487
1421106109664.00,2.5854235,-2.3628364,-8.934172
1421106109665.00,2.6482928,-2.3108945,-8.799751
1421106109666.00,2.4929159,-2.2576053,-8.917556
1421106109688.00,2.5545876,-2.2737718,-8.964707
1421106109701.00,2.6572742,-2.209256,-9.05048
1421106109722.00,2.6226962,-2.2843995,-8.915909
1421106109741.00,2.556384,-2.357747,-8.904982
1421106109761.00,2.633324,-2.2502706,-8.945398
1421106109782.00,2.561174,-2.2752686,-8.888516
1421106109801.00,2.5650659,-2.327061,-8.921448
1421106109821.00,2.5975485,-2.371219,-8.821007
1421106109841.00,2.5300388,-2.389481,-8.936417
1421106109861.00,2.5491989,-2.353406,-8.855136
1421106109885.00,2.474654,-2.3378384,-9.105865
1421106109902.00,2.4544458,-2.3800507,-9.038355
1421106109992.00,2.4123833,-2.2900877,-8.834478
1421106109993.00,2.525099,-2.3584955,-8.86726
1421106109994.00,2.4739056,-2.301464,-8.844059
1421106109995.00,2.614463,-2.4408243,-8.906928
1421106110001.00,2.615511,-2.325115,-8.871751
1421106110021.00,2.463577,-2.336192,-8.900043
1421106110041.00,2.5277934,-2.206711,-9.009913
1421106110061.00,2.6107209,-2.30341,-8.902737
1421106110081.00,2.582729,-2.450105,-8.93028
1421106110104.00,2.7225385,-2.3673272,-8.897198
1421106110122.00,2.6355693,-2.286046,-8.867859
1421106110141.00,2.6090744,-2.4260051,-8.979826
1421106110161.00,2.5927584,-2.411186,-9.012309
1421106110181.00,2.5497978,-2.3574476,-8.976383
1421106110201.00,2.6545799,-2.238445,-8.827892
1421106110221.00,2.5724006,-2.3685246,-8.847202
1421106110312.00,2.559228,-2.3444247,-8.99749
1421106110314.00,2.4745042,-2.3288572,-8.903036
1421106110317.00,2.5965006,-2.4240592,-8.964109
1421106110317.00,2.5768914,-2.2484744,-8.83852
1421106110323.00,2.615062,-2.3408322,-8.928184
1421106110341.00,2.5077353,-2.2785616,-8.962912
1421106110361.00,2.6081762,-2.2990692,-8.929831
1421106110382.00,2.5762925,-2.3828948,-8.778944
1421106110405.00,2.5780888,-2.2339544,-8.757239
1421106110422.00,2.4875271,-2.3903792,-9.02129
1421106110441.00,2.4629781,-2.3854394,-8.962912
1421106110461.00,2.4447162,-2.309248,-9.02144
1421106110481.00,2.45729,-2.2715263,-8.89166
1421106110501.00,2.5435107,-2.1647983,-8.935069
1421106110521.00,2.3758593,-2.1465364,-8.938662
1421106110545.00,2.4493566,-2.307302,-8.957073
1421106110561.00,2.5247996,-2.4237597,-8.8829775
1421106110584.00,2.5363257,-2.4623795,-8.897946
1421106110633.00,2.4084916,-2.2990692,-8.875493
1421106110634.00,2.4754024,-2.312092,-8.895252
1421106110641.00,2.551594,-2.2764661,-9.052875
1421106110661.00,2.4463627,-2.235601,-8.966205
1421106110681.00,2.50055,-2.242936,-8.950038
1421106110701.00,2.4029531,-2.307302,-8.881331
1421106110721.00,2.3776557,-2.3764582,-8.89166
1421106110741.00,2.454895,-2.3287075,-8.932974
1421106110761.00,2.4768991,-2.289489,-8.831335
1421106110785.00,2.5430617,-2.2354515,-8.930429
1421106110801.00,2.6432035,-2.3460712,-8.967253
1421106110822.00,2.4258554,-2.2812562,-8.766819
1421106110841.00,2.577939,-2.3767576,-8.749156
1421106110861.00,2.5604255,-2.399211,-8.8332815
1421106110882.00,2.4525,-2.382745,-8.930878
1421106110901.00,2.621798,-2.347119,-8.952883
1421106110976.00,2.5128245,-2.2445824,-8.966504
1421106110979.00,2.4644752,-2.3349943,-8.916508
1421106110981.00,2.4243586,-2.3266118,-8.856632
1421106110983.00,2.6165588,-2.366878,-8.885074
1421106111001.00,2.3836432,-2.3487656,-8.832233
1421106111021.00,2.4263046,-2.285148,-8.863817
1421106111041.00,2.56312,-2.3119423,-8.922047
1421106111061.00,2.547253,-2.174079,-8.854238
1421106111081.00,2.4945626,-2.190844,-8.890911
1421106111101.00,2.50055,-2.295776,-9.017548
1421106111121.00,2.5176146,-2.26015,-8.918754
1421106111144.00,2.531386,-2.2797592,-8.893307
1421106111161.00,2.5545876,-2.2917342,-8.979976
1421106111182.00,2.6508377,-2.359693,-8.866662
1421106111202.00,2.6000931,-2.3134391,-8.8951025
1421106111249.00,2.6532326,-2.356849,-8.917107
1421106111250.00,2.5556355,-2.430945,-8.860973
1421106111261.00,2.6412575,-2.2474265,-8.83867
1421106111281.00,2.6473947,-2.3113434,-8.9811735
1421106111301.00,2.6370661,-2.3300545,-8.798254
1421106111321.00,2.5586293,-2.3632855,-8.859627
1421106111341.00,2.5382717,-2.1414468,-8.804241
1421106111361.00,2.6244924,-2.3369403,-8.92025
1421106111381.00,2.8113039,-2.4399261,-9.105266
1421106111401.00,2.8342063,-2.3843915,-8.919502
1421106111421.00,2.787204,-2.2929318,-8.827593
1421106111441.00,2.6399102,-2.2306614,-8.781488
1421106111462.00,2.3346949,-2.2992187,-8.820558
1421106111481.00,2.3291564,-2.2617965,-8.893157
1421106111501.00,2.4141798,-2.3065536,-9.058263
1421106111521.00,2.5758436,-2.3385868,-8.994645
1421106111593.00,2.3917265,-2.3209236,-9.049731
1421106111594.00,2.3339465,-2.4472609,-9.077423
1421106111595.00,2.2388942,-2.4556434,-8.883576
1421106111601.00,2.2965243,-2.3083498,-9.014105
1421106111621.00,2.203418,-2.272724,-8.919203
1421106111642.00,2.239493,-2.3508613,-8.932375
1421106111661.00,2.189946,-2.3388863,-8.888666
1421106111681.00,2.3323,-2.2767653,-8.979676
1421106111701.00,2.3444247,-2.196682,-8.967253
1421106111721.00,2.323169,-2.2902374,-9.007968
1421106111743.00,2.427502,-2.3378384,-9.01201
1421106111761.00,2.3499632,-2.287992,-8.980425
1421106111782.00,2.546205,-2.356849,-8.837472
1421106111801.00,2.739603,-2.3068528,-8.942703
1421106111821.00,2.772385,-2.2852976,-8.806038
1421106111841.00,2.8235784,-2.3626869,-8.864865
1421106111861.00,2.7815158,-2.3227198,-8.756491
1421106111923.00,2.8825557,-2.3543043,-8.80978
1421106111924.00,2.889142,-2.117796,-8.878936
1421106111925.00,2.8928843,-2.193389,-8.763825
1421106111947.00,2.874323,-2.2138963,-8.897497
1421106111962.00,2.7339149,-2.239044,-8.875643
1421106111986.00,2.794389,-2.2778132,-8.883576
1421106112001.00,2.7660978,-2.4824378,-8.830287
1421106112021.00,2.7512786,-2.5486002,-8.80993
1421106112041.00,2.7084677,-2.4421716,-8.962612
1421106112063.00,2.7144554,-2.422263,-9.021739
1421106112087.00,2.6095235,-2.467918,-8.989556
1421106112101.00,2.525548,-2.5346792,-8.957822
1421106112122.00,2.38993,-2.5450077,-8.848998
1421106112141.00,2.3971152,-2.4553442,-8.837173
1421106112161.00,2.3222709,-2.3532565,-9.087303
1421106112181.00,2.2924829,-2.2405407,-9.028475
1421106112239.00,2.3032603,-2.3523583,-9.021889
1421106112240.00,2.2314098,-2.374662,-8.991053
1421106112244.00,2.3137386,-2.3167324,-8.853639
1421106112261.00,2.1989274,-2.3152354,-8.984017
1421106112281.00,2.13516,-2.20731,-9.288634
1421106112301.00,2.321223,-2.246678,-9.286838
1421106112321.00,2.512525,-2.2122495,-8.904084
1421106112341.00,2.5343797,-2.2814057,-8.65111
1421106112362.00,2.6779313,-2.186952,-8.82894
1421106112385.00,2.798281,-2.400558,-8.810229
1421106112413.00,2.701133,-2.4671695,-9.008267
1421106112424.00,2.7590625,-2.410587,-8.778195
1421106112442.00,2.6743386,-2.3535557,-8.753497
1421106112462.00,2.7116113,-2.328408,-8.7472105
1421106112482.00,2.6593697,-2.388583,-8.813822
1421106112503.00,2.6517358,-2.3575974,-8.8283415
1421106112576.00,2.7351122,-2.439477,-8.89166
1421106112577.00,2.7640023,-2.3496637,-8.812923
1421106112577.00,2.7340646,-2.4132814,-8.839418
1421106112582.00,2.5734484,-2.4378304,-8.92504
1421106112602.00,2.5628207,-2.556384,-8.975784
1421106112622.00,2.5441096,-2.489473,-8.935219
1421106112642.00,2.663561,-2.4786956,-8.841514
1421106112662.00,2.5394692,-2.5108786,-8.812325
1421106112685.00,2.4819887,-2.389481,-8.964409
1421106112702.00,2.5438101,-2.3516097,-9.030421
1421106112721.00,2.5456064,-2.4754024,-8.868458
1421106112743.00,2.2936802,-2.512525,-8.894803
1421106112761.00,2.4948618,-2.2776635,-8.940758
1421106112782.00,2.411635,-2.2486238,-9.035511
1421106112802.00,2.352059,-2.2700295,-9.094338
1421106112821.00,2.3812482,-2.2296135,-8.971744
1421106112843.00,2.4839346,-2.3227198,-8.966205
1421106112934.00,2.4191194,-2.2230272,-8.883277
1421106112935.00,2.470762,-2.219285,-8.913215
1421106112936.00,2.562671,-2.2815554,-8.821905
1421106112937.00,2.525548,-2.3561006,-8.843011
1421106112941.00,2.5908124,-2.3243666,-8.924741
1421106112961.00,2.4514523,-2.2068608,-9.0567665
1421106112982.00,2.577939,-2.283651,-8.902437
1421106113001.00,2.406396,-2.3261628,-9.038055
1421106113022.00,2.442321,-2.3580465,-8.975934
1421106113042.00,2.4821384,-2.2567072,-8.9320755
1421106113062.00,2.4864793,-2.3758593,-8.898096
1421106113082.00,2.5310867,-2.4108865,-8.82415
1421106113102.00,2.617457,-2.4218137,-8.935818
1421106113122.00,2.6914032,-2.3617887,-8.87205
1421106113141.00,2.4766,-2.5087829,-8.927884
1421106113163.00,2.531835,-2.4643254,-9.047485
1421106113252.00,2.5927584,-2.3489153,-8.899593
1421106113254.00,2.584675,-2.3683748,-8.9248905
1421106113255.00,2.5343797,-2.3363416,-8.871152
1421106113256.00,2.5423133,-2.294728,-8.995693
1421106113262.00,2.4887247,-2.3137386,-8.863967
1421106113282.00,2.5047414,-2.3504124,-9.04075
1421106113302.00,2.4638762,-2.2589524,-8.8895645
1421106113325.00,2.5292902,-2.2936802,-8.971145
1421106113350.00,2.4791446,-2.3029609,-8.969198
1421106113362.00,2.5165668,-2.4586372,-8.9055805
1421106113382.00,2.4278014,-2.4177723,-8.937614
1421106113403.00,2.4530988,-2.4926167,-8.942254
1421106113423.00,2.4806414,-2.4047494,-8.82894
1421106113443.00,2.554887,-2.310595,-8.763526
1421106113463.00,2.4819887,-2.376009,-8.942404
1421106113484.00,2.476001,-2.400558,-8.935668
1421106113503.00,2.547253,-2.26015,-8.955277
1421106113584.00,2.5054898,-2.2341042,-8.880882
1421106113585.00,2.4950116,-2.223177,-8.824
1421106113587.00,2.4941134,-2.3692732,-8.865015
1421106113588.00,2.588567,-2.237098,-8.947044
1421106113610.00,2.6104217,-2.3538551,-8.835826
1421106113623.00,2.570754,-2.296674,-8.9883585
1421106113647.00,2.5488997,-2.3861878,-8.869206
1421106113665.00,2.5456064,-2.4029531,-9.023236
1421106113681.00,2.5828788,-2.4206164,-8.884774
1421106113702.00,2.5197103,-2.3004162,-8.903036
1421106113721.00,2.5701554,-2.3872356,-8.876541
1421106113741.00,2.4815397,-2.2468276,-8.88672
1421106113772.00,2.4954607,-2.2950275,-8.913364
1421106113782.00,2.5394692,-2.191892,-8.932824
1421106113802.00,2.54875,-2.340982,-9.032816
1421106113822.00,2.6036856,-2.3201752,-9.030571
1421106113874.00,2.5023463,-2.2882915,-8.926837
1421106113875.00,2.527494,-2.3881338,-8.826395
1421106113882.00,2.5146208,-2.3161335,-8.957672
1421106113903.00,2.4858806,-2.3686743,-8.898545
1421106113924.00,2.425107,-2.1939876,-8.93013
1421106113943.00,2.4804919,-2.3182292,-8.874894
1421106114044.00,2.5981472,-2.3734643,-8.867111
1421106114045.00,2.5041425,-2.312541,-8.863817
1421106114045.00,2.4712112,-2.2864952,-8.751551
1421106114046.00,2.500101,-2.3185287,-8.834928
1421106114047.00,2.5632696,-2.4219635,-8.904384
1421106114063.00,2.5816813,-2.2903872,-8.878038
1421106114094.00,2.5047414,-2.3050566,-8.841663
1421106114102.00,2.5262966,-2.4301963,-9.007818
1421106114122.00,2.3936722,-2.4013064,-9.0076685
1421106114142.00,2.5456064,-2.3718178,-8.956775
1421106114223.00,2.4968078,-2.2954764,-8.908724
1421106114224.00,2.4137306,-2.3632855,-8.935069
1421106114225.00,2.4138803,-2.4682174,-8.920699
1421106114226.00,2.4230113,-2.36598,-8.961414
1421106114249.00,2.5200095,-2.3824456,-8.876691
1421106114263.00,2.3586452,-2.3064039,-8.884475
1421106114282.00,2.5719516,-2.282753,-8.816067
1421106114302.00,2.5634193,-2.434238,-8.935518
1421106114322.00,2.4839346,-2.344874,-8.866512
1421106114345.00,2.5273445,-2.280358,-8.867709
1421106114362.00,2.4352858,-2.3459215,-8.844807
1421106114382.00,2.5093818,-2.326462,-8.959319
1421106114402.00,2.4330404,-2.302512,-8.777896
1421106114422.00,2.4749534,-2.189946,-8.892408
1421106114443.00,2.485731,-2.2315595,-8.822952
1421106114462.00,2.4899223,-2.2975721,-8.898545
1421106114530.00,2.4439678,-2.1844075,-8.943152
1421106114531.00,2.577939,-2.2397923,-8.908276
1421106114532.00,2.5444088,-2.261647,-8.864865
1421106114541.00,2.5161178,-2.1552181,-8.876841
1421106114563.00,2.5346792,-2.248175,-9.018895
1421106114582.00,2.544858,-2.3143373,-8.806337
1421106114602.00,2.4923172,-2.3876848,-8.827593
1421106114622.00,2.6369164,-2.4367826,-8.826994
1421106114643.00,2.5316854,-2.440974,-8.8653145
1421106114672.00,2.605931,-2.3483167,-8.818911
1421106114682.00,2.5421636,-2.42361,-8.727751
1421106114702.00,2.590513,-2.4023542,-8.794063
1421106114722.00,2.6523345,-2.4519012,-8.838071
1421106114742.00,2.6451495,-2.2761667,-8.919801
1421106114762.00,2.5388703,-2.2052143,-8.822055
1421106114783.00,2.5300388,-2.271227,-8.795859
1421106114802.00,2.54875,-2.4087908,-8.84346
1421106114862.00,2.5610244,-2.2728736,-8.8266945
1421106114864.00,2.4911196,-2.2555096,-8.876841
1421106114865.00,2.361639,-2.3052063,-8.952733
1421106114885.00,2.4405248,-2.2281165,-8.793913
1421106114903.00,2.3754103,-2.3382876,-8.807983
1421106114923.00,2.5360262,-2.423161,-8.7764
1421106114942.00,2.5132737,-2.391876,-8.753198
1421106114964.00,2.5006998,-2.2595513,-8.819809
1421106114987.00,2.5780888,-2.2276676,-8.783435
1421106115004.00,2.4803421,-2.3656805,-8.784483
1421106115022.00,2.6414073,-2.4387286,-8.898545
1421106115042.00,2.5695565,-2.3516097,-8.81008
1421106115062.00,2.5638685,-2.243834,-8.851843
1421106115082.00,2.5218058,-2.1698878,-8.898545
1421106115105.00,2.536176,-2.4040008,-8.820108
1421106115122.00,2.547253,-2.3483167,-8.867111
1421106115142.00,2.450105,-2.2326074,-8.796757
1421106115165.00,2.526147,-2.3102958,-8.8774395
1421106115222.00,2.3960674,-2.292782,-8.72311
1421106115223.00,2.5596771,-2.2944288,-8.777447
1421106115224.00,2.5954528,-2.3752606,-9.033714
1421106115246.00,2.482737,-2.4050486,-8.909023
1421106115264.00,2.5369244,-2.475103,-8.913215
1421106115283.00,2.5021966,-2.328408,-8.859178
1421106115302.00,2.5815318,-2.3516097,-8.838969
1421106115322.00,2.5126748,-2.2622457,-8.865165
1421106115342.00,2.485282,-2.2878425,-8.794512
1421106115362.00,2.5397685,-2.299518,-8.821755
1421106115387.00,2.51028,-2.1902454,-8.830736
1421106115402.00,2.391427,-2.2838008,-8.8862705
1421106115423.00,2.5691075,-2.3397844,-8.792715
1421106115443.00,2.6182053,-2.276017,-8.8564825
1421106115463.00,2.4411237,-2.3694227,-8.851394
1421106115530.00,2.5277934,-2.2791605,-8.855885
1421106115531.00,2.4758515,-2.3035598,-8.694819
1421106115532.00,2.5780888,-2.2992187,-8.888516
1421106115542.00,2.4498055,-2.326462,-8.8636675
1421106115562.00,2.6077273,-2.325564,-8.952733
1421106115582.00,2.5731492,-2.343826,-8.850046
1421106115603.00,2.5327332,-2.371668,-8.86307
1421106115626.00,2.5286915,-2.299518,-8.926987
1421106115642.00,2.5828788,-2.379901,-8.905281
1421106115664.00,2.4694147,-2.3454726,-8.923095
1421106115682.00,2.522255,-2.3631358,-8.85783
1421106115702.00,2.5920098,-2.3046076,-8.789123
1421106115722.00,2.4469614,-2.2897882,-8.770561
1421106115742.00,2.4610322,-2.3061044,-8.834928
1421106115763.00,2.4599845,-2.310595,-8.891809
1421106115784.00,2.4631279,-2.3535557,-8.844807
1421106115865.00,2.3182292,-2.4378304,-8.890761
1421106115866.00,2.5233028,-2.2345533,-8.75694
1421106115867.00,2.5258474,-2.26494,-8.896899
1421106115868.00,2.4132814,-2.3680756,-8.789422
1421106115887.00,2.4602838,-2.3246658,-8.829539
1421106115902.00,2.4373815,-2.3002665,-8.830886
1421106115922.00,2.425556,-2.237098,-8.826545
1421106115942.00,2.4304957,-2.4104376,-8.814121
1421106115962.00,2.5319848,-2.3162832,-8.936866
1421106115983.00,2.3872356,-2.2632935,-8.860374
1421106116002.00,2.3821464,-2.2329066,-8.8316345
1421106116022.00,2.4710615,-2.301464,-8.872649
1421106116042.00,2.5349784,-2.3839426,-8.791668
1421106116062.00,2.6032364,-2.4158263,-8.864266
1421106116082.00,2.5253985,-2.3680756,-8.8934555
1421106116103.00,2.5340803,-2.2167404,-8.8332815
1421106116177.00,2.4791446,-2.2778132,-8.887319
1421106116178.00,2.4969575,-2.2128484,-8.948542
1421106116179.00,2.5343797,-2.3879843,-8.779543
1421106116183.00,2.4748037,-2.4463627,-8.866662
1421106116202.00,2.468367,-2.3912773,-8.929531
1421106116222.00,2.4206164,-2.2647903,-8.92519
1421106116242.00,2.4126828,-2.3276596,-8.77101
1421106116263.00,2.4499552,-2.4770489,-8.831335
1421106116282.00,2.6426046,-2.3314018,-8.840017
1421106116304.00,2.411635,-2.34188,-8.893755
1421106116325.00,2.4743545,-2.3246658,-8.96381
1421106116343.00,2.5256977,-2.3089485,-8.89136
1421106116363.00,2.5086334,-2.386637,-8.949589
1421106116383.00,2.4878266,-2.427053,-8.892408
1421106116403.00,2.5081842,-2.3709197,-8.8669615
1421106116423.00,2.5239015,-2.4087908,-8.938961
1421106116483.00,2.5041425,-2.2643414,-8.94435
1421106116483.00,2.5304878,-2.3360422,-8.916957
1421106116484.00,2.5093818,-2.3593936,-8.882528
1421106116507.00,2.3706203,-2.4737558,-8.890462
1421106116522.00,2.4525,-2.2814057,-8.874296
1421106116543.00,2.5797355,-2.397265,-8.882229
1421106116562.00,2.552043,-2.4102879,-8.926687
1421106116586.00,2.5253985,-2.3834934,-8.898695
1421106116610.00,2.425556,-2.2594016,-8.9442005
1421106116622.00,2.5191114,-2.360741,-8.941506
1421106116642.00,2.5233028,-2.325564,-8.929082
1421106116662.00,2.5023463,-2.3948698,-8.868009
1421106116682.00,2.5402176,-2.3623874,-8.974438
1421106116704.00,2.509232,-2.3032603,-8.969797
1421106116725.00,2.4908204,-2.3682253,-8.916807
1421106116742.00,2.491419,-2.2517674,-8.982521
1421106116763.00,2.4107368,-2.2472768,-8.95887
1421106116820.00,2.465972,-2.2474265,-8.956625
1421106116821.00,2.523153,-2.2887406,-8.896151
1421106116822.00,2.57749,-2.4108865,-8.954978
1421106116842.00,2.509232,-2.4881258,-8.872649
1421106116863.00,2.5123756,-2.4763005,-8.841364
1421106116882.00,2.433789,-2.3460712,-8.912316
1421106116903.00,2.4697142,-2.2080584,-8.873248
1421106116922.00,2.544259,-2.2598505,-8.914263
1421106116942.00,2.414479,-2.3578968,-8.904832
1421106116963.00,2.5676107,-2.35625,-8.76652
1421106116982.00,2.5032444,-2.2838008,-8.864566
1421106117003.00,2.4619303,-2.2257216,-9.026529
1421106117025.00,2.444267,-2.3584955,-8.918005
1421106117043.00,2.5712032,-2.4295976,-9.000633
1421106117064.00,2.5192611,-2.4090903,-9.052725
1421106117088.00,2.4875271,-2.2969735,-8.913514
1421106117103.00,2.538122,-2.34188,-8.777148
1421106117174.00,2.5173151,-2.437082,-8.932824
1421106117175.00,2.5982969,-2.3323,-8.899893
1421106117176.00,2.5625212,-2.4634273,-8.943751
1421106117184.00,2.5056396,-2.3915768,-8.93013
1421106117203.00,2.5333319,-2.4087908,-8.950936
1421106117222.00,2.4851322,-2.3569987,-8.907377
1421106117242.00,2.5884173,-2.3031106,-8.889265
1421106117262.00,2.5405169,-2.2936802,-8.850046
1421106117283.00,2.5450077,-2.2960753,-8.856782
1421106117302.00,2.5126748,-2.336192,-8.904384
1421106117322.00,2.5075855,-2.3408322,-8.867709
1421106117343.00,2.4879763,-2.3358924,-8.932525
1421106117362.00,2.5950036,-2.2945783,-8.957822
1421106117383.00,2.3749611,-2.386637,-8.851094
1421106117402.00,2.4022045,-2.3697221,-8.840167
1421106117464.00,2.4240592,-2.4004083,-8.960517
1421106117465.00,2.5532405,-2.3751109,-8.904533
1421106117466.00,2.4310944,-2.217788,-8.943302
1421106117488.00,2.5177643,-2.286046,-8.880134
1421106117503.00,2.6108706,-2.2329066,-8.917556
1421106117523.00,2.4676185,-2.3860383,-8.8686075
1421106117543.00,2.4974067,-2.3186784,-8.849447
1421106117562.00,2.4363337,-2.301015,-8.834029
1421106117583.00,2.5577312,-2.387535,-8.93971
1421106117603.00,2.5101302,-2.432891,-8.917556
1421106117622.00,2.5188122,-2.2884412,-8.901838
1421106117644.00,2.5547373,-2.3242168,-8.930878
1421106117662.00,2.580484,-2.2984703,-8.9585705
1421106117682.00,2.5643175,-2.4430697,-8.9201
1421106117705.00,2.5245004,-2.3773563,-8.956176
1421106117724.00,2.4583378,-2.3369403,-8.88642
1421106117743.00,2.5158184,-2.324067,-8.904982
1421106117809.00,2.4619303,-2.3767576,-8.908424
1421106117810.00,2.3948698,-2.3062541,-8.950487
1421106117811.00,2.4391778,-2.2550607,-8.840017
1421106117822.00,2.424508,-2.2926323,-9.005872
1421106117845.00,2.4589367,-2.2641916,-8.944949
1421106117862.00,2.4860303,-2.2689817,-9.014255
1421106117883.00,2.5194108,-2.3496637,-9.048983
1421106117903.00,2.5816813,-2.241888,-9.0253315
1421106117923.00,2.4739056,-2.3071523,-8.888217
1421106117943.00,2.509232,-2.2641916,-8.998387
1421106117963.00,2.5777895,-2.337539,-8.866213
1421106117986.00,2.5578809,-2.3450234,-8.900342
1421106118008.00,2.535128,-2.4026537,-8.922945
1421106118024.00,2.4286995,-2.4614813,-9.042995
1421106118044.00,2.3785539,-2.462679,-9.042546
1421106118066.00,2.3778052,-2.404899,-8.824599
1421106118159.00,2.3917265,-2.3273602,-8.937614
1421106118160.00,2.4956102,-2.312092,-8.908574
1421106118162.00,2.4040008,-2.2511687,-8.834329
1421106118163.00,2.4685166,-2.465972,-8.928782
1421106118164.00,2.5584795,-2.3113434,-8.884026
1421106118182.00,2.4893234,-2.4644752,-8.898096
1421106118202.00,2.5809329,-2.2237756,-8.885971
1421106118223.00,2.5975485,-2.252366,-8.811426
1421106118243.00,2.5445585,-2.2285657,-9.008417
1421106118262.00,2.5174649,-2.252965,-9.009464
1421106118283.00,2.4954607,-2.512525,-8.898246
1421106118303.00,2.5062382,-2.3514602,-8.921148
1421106118322.00,2.5562344,-2.3661296,-8.963361
1421106118343.00,2.532284,-2.3704705,-9.135952
1421106118364.00,2.4355853,-2.3833437,-8.890761
1421106118383.00,2.5120761,-2.377506,-8.922047
1421106118404.00,2.6629624,-2.392774,-9.017248
1421106118467.00,2.4397764,-2.3029609,-8.932674
1421106118468.00,2.4393275,-2.3176305,-8.976533
1421106118469.00,2.5192611,-2.2561083,-8.879385
1421106118483.00,2.5101302,-2.2460792,-8.890911
1421106118502.00,2.5411158,-2.2767653,-8.932525
1421106118523.00,2.5090823,-2.3070025,-8.911419
1421106118543.00,2.2993684,-2.4010072,-9.080118
1421106118564.00,2.4974067,-2.4276516,-9.001082
1421106118583.00,2.552941,-2.3574476,-8.933124
1421106118604.00,2.4584875,-2.2546115,-8.996891
1421106118622.00,2.4527993,-2.3653812,-8.923842
1421106118643.00,2.5484505,-2.3514602,-8.868158
1421106118666.00,2.5310867,-2.2829027,-8.967103
1421106118684.00,2.5589287,-2.2619462,-8.982521
1421106118704.00,2.562671,-2.429897,-8.990455
1421106118725.00,2.3563998,-2.3617887,-8.951685
1421106118798.00,2.4948618,-2.3495142,-8.931926
1421106118799.00,2.4507036,-2.4658222,-8.9022875
1421106118800.00,2.4225624,-2.3022125,-8.988059
1421106118805.00,2.509232,-2.3685246,-8.885822
1421106118823.00,2.4881258,-2.278861,-8.926687
1421106118842.00,2.4221132,-2.2444327,-8.983269
1421106118863.00,2.399211,-2.2391937,-8.916657
1421106118883.00,2.4653733,-2.2932312,-8.898845
1421106118903.00,2.518962,-2.2715263,-8.976533
1421106118924.00,2.4800427,-2.2555096,-8.9618635
1421106118943.00,2.3983126,-2.1796174,-8.951685
1421106118963.00,2.550995,-2.2679338,-8.762628
1421106118985.00,2.5619226,-2.3008654,-8.912915
1421106119005.00,2.6074278,-2.1743784,-8.922795
1421106119070.00,2.5307872,-2.2552102,-8.979826
1421106119071.00,2.5574317,-2.246678,-8.884774
1421106119072.00,2.517914,-2.3983126,-8.984467
1421106119083.00,2.5475523,-2.3364913,-8.947943
1421106119102.00,2.4978557,-2.3306534,-8.994795
1421106119123.00,2.4325914,-2.1824615,-8.952284
1421106119143.00,2.5186625,-2.3379881,-9.002878
1421106119163.00,2.439028,-2.3406825,-8.948542
1421106119182.00,2.5411158,-2.3487656,-9.05033
1421106119205.00,2.456841,-2.3815475,-8.994945
1421106119224.00,2.4777975,-2.3646326,-8.948092
1421106119244.00,2.484234,-2.2472768,-8.999885
1421106119263.00,2.5411158,-2.2796094,-8.929681
1421106119283.00,2.3754103,-2.3206244,-8.866063
1421106119303.00,2.5041425,-2.3544538,-8.89136
1421106119323.00,2.5138724,-2.309248,-9.018296
1421106119343.00,2.3987617,-2.3487656,-8.965007
1421106119363.00,2.502047,-2.2564077,-8.991801
1421106119480.00,2.4831862,-2.3248155,-8.91097
1421106119482.00,2.4652236,-2.202819,-8.828042
1421106119483.00,2.4176226,-2.2667363,-8.878936
1421106119484.00,2.5273445,-2.2552102,-8.826245
1421106119485.00,2.4498055,-2.1959336,-8.894953
1421106119487.00,2.6451495,-2.3863375,-8.903485
1421106119503.00,2.4254065,-2.326462,-8.878936
1421106119524.00,2.5054898,-2.43319,-8.889713
1421106119545.00,2.4942632,-2.4054978,-8.813223
1421106119563.00,2.4983048,-2.2778132,-8.978629
1421106119583.00,2.4692652,-2.4069946,-8.9442005
1421106119603.00,2.5394692,-2.351011,-8.902886
1421106119624.00,2.5204587,-2.412533,-8.950487
1421106119643.00,2.4137306,-2.287992,-8.929232
1421106119663.00,2.3604414,-2.343826,-8.903036
1421106119683.00,2.5373735,-2.3878345,-8.947643
1421106119765.00,2.451003,-2.3634353,-8.914263
1421106119766.00,2.5297394,-2.3040087,-8.970546
1421106119767.00,2.525099,-2.2665865,-8.8722
1421106119768.00,2.5078847,-2.3674767,-8.880583
1421106119789.00,2.524201,-2.4463627,-8.865015
1421106119803.00,2.5253985,-2.3840923,-8.890013
1421106119823.00,2.4863296,-2.312541,-8.9144125
1421106119844.00,2.4225624,-2.4598348,-8.850196
1421106119863.00,2.4233108,-2.26973,-8.95872
1421106119886.00,2.4766,-2.3845413,-8.975336
1421106119904.00,2.5426126,-2.3272104,-8.851244
1421106119923.00,2.4670198,-2.3661296,-8.845855
1421106119943.00,2.552043,-2.274969,-8.844956
1421106119963.00,2.4535477,-2.2492228,-8.851244
1421106119983.00,2.5191114,-2.3252647,-8.937315
1421106120009.00,2.4393275,-2.27946,-8.942104
1421106120027.00,2.5783882,-2.3733146,-8.956326
1421106120085.00,2.5691075,-2.3254142,-8.889265
1421106120086.00,2.5797355,-2.270179,-8.951685
1421106120087.00,2.5875192,-2.3770568,-8.844059
1421106120108.00,2.4376807,-2.2893393,-8.991502
1421106120123.00,2.5427623,-2.3294559,-8.903485
1421106120143.00,2.4281008,-2.3806493,-8.962163
1421106120163.00,2.4599845,-2.3673272,-9.022338
1421106120184.00,2.6319768,-2.3132894,-8.914712
1421106120204.00,2.4637268,-2.2884412,-8.832982
1421106120223.00,2.545307,-2.300566,-8.933573
1421106120244.00,2.5697062,-2.287992,-8.899294
1421106120263.00,2.6563761,-2.3126907,-8.873248
1421106120286.00,2.4812403,-2.2550607,-8.887319
1421106120305.00,2.4993525,-2.2782624,-9.003627
1421106120324.00,2.4571404,-2.3445745,-8.929381
1421106120344.00,2.4134312,-2.3733146,-8.920549
1421106120410.00,2.4221132,-2.2469773,-8.876242
1421106120411.00,2.4761508,-2.2948778,-8.97324
1421106120413.00,2.5086334,-2.4613316,-8.998387
1421106120423.00,2.515968,-2.4412735,-8.976383
1421106120443.00,2.6571245,-2.2978716,-8.988209
1421106120463.00,2.5557852,-2.2809567,-9.022637
1421106120483.00,2.4728577,-2.3099964,-8.957822
1421106120503.00,2.515968,-2.3321502,-8.894953
1421106120524.00,2.413581,-2.2354515,-8.898396
1421106120543.00,2.4942632,-2.3013144,-8.796158
1421106120563.00,2.3987617,-2.3595433,-8.956176
1421106120583.00,2.569856,-2.4571404,-8.9883585
1421106120607.00,2.5888665,-2.3294559,-8.995094
1421106120623.00,2.5450077,-2.3715184,-8.88672
1421106120643.00,2.5556355,-2.3016138,-8.9320755
1421106120666.00,2.566862,-2.378853,-8.840317
1421106120727.00,2.425107,-2.2766159,-8.986114
1421106120728.00,2.5117767,-2.3055058,-8.903485
1421106120729.00,2.4441175,-2.3770568,-8.841364
1421106120749.00,2.490521,-2.3261628,-8.946445
1421106120763.00,2.516417,-2.3920257,-8.934919
1421106120783.00,2.4867787,-2.3269112,-8.839868
1421106120803.00,2.4718099,-2.3843915,-8.9811735
1421106120823.00,2.4498055,-2.264042,-8.9320755
1421106120843.00,2.5411158,-2.223177,-8.978629
1421106120863.00,2.3920257,-2.324516,-8.938512
1421106120884.00,2.4959097,-2.3908281,-8.947943
1421106120905.00,2.501598,-2.3155348,-8.919053
1421106120923.00,2.5523424,-2.3016138,-8.934919
1421106120943.00,2.5366251,-2.3809488,-8.928633
1421106120963.00,2.5927584,-2.4032524,-8.954828
1421106120983.00,2.547702,-2.3748116,-9.01171
1421106121003.00,2.5355773,-2.3201752,-8.982222
1421106121060.00,2.50055,-2.373614,-8.994197
1421106121061.00,2.5209076,-2.1893473,-9.075777
1421106121064.00,2.5349784,-2.3302042,-8.929681
1421106121084.00,2.6490412,-2.3504124,-8.994347
1421106121106.00,2.3619382,-2.2469773,-8.888516
1421106121123.00,2.408342,-2.289489,-8.992999
1421106121143.00,2.4095392,-2.2977219,-8.933124
1421106121165.00,2.5725503,-2.3697221,-8.869057
1421106121188.00,2.588118,-2.3046076,-8.910221
1421106121203.00,2.5084836,-2.3064039,-8.929232
1421106121224.00,2.5397685,-2.3137386,-8.976683
1421106121244.00,2.6074278,-2.402504,-8.960667
1421106121264.00,2.5447083,-2.317331,-8.865614
1421106121285.00,2.451003,-2.314487,-8.936716
1421106121305.00,2.5319848,-2.3249652,-8.895851
1421106121323.00,2.465523,-2.3035598,-8.908276
1421106121397.00,2.5014482,-2.3673272,-8.974887
1421106121398.00,2.56791,-2.4447162,-8.90603
1421106121399.00,2.464924,-2.3478675,-8.879834
1421106121405.00,2.4945626,-2.2944288,-8.844209
1421106121424.00,2.5538392,-2.3019133,-8.926687
1421106121443.00,2.4900718,-2.395319,-8.890013
1421106121465.00,2.3237677,-2.3385868,-8.933573
1421106121483.00,2.445315,-2.3052063,-9.003777
1421106121504.00,2.4739056,-2.316433,-9.024733
1421106121527.00,2.4147785,-2.2632935,-8.9690485
1421106121543.00,2.4900718,-2.2537134,-8.961564
1421106121563.00,2.5087829,-2.3656805,-8.989107
1421106121585.00,2.5493486,-2.3770568,-8.95393
1421106121603.00,2.4007077,-2.38993,-9.106912
1421106121624.00,2.5432115,-2.3210733,-8.991502
1421106121686.00,2.5282426,-2.2140458,-8.859178
1421106121687.00,2.5577312,-2.3076012,-8.902737
1421106121688.00,2.5285418,-2.2974224,-8.932974
1421106121710.00,2.563569,-2.240391,-8.769664
1421106121724.00,2.510579,-2.319277,-8.955577
1421106121743.00,2.474654,-2.3444247,-8.937016
1421106121763.00,2.4959097,-2.377955,-8.945398
1421106121783.00,2.5491989,-2.3495142,-8.878487
1421106121804.00,2.5524921,-2.3043082,-8.892109
1421106121824.00,2.5364754,-2.3340962,-8.926987
1421106121853.00,2.427053,-2.3834934,-8.8829775
1421106121872.00,2.5382717,-2.2776635,-8.848998
1421106121883.00,2.5276437,-2.3269112,-9.022038
1421106121903.00,2.4932153,-2.3107448,-8.894054
1421106121923.00,2.4158263,-2.3617887,-8.8669615
1421106121943.00,2.5174649,-2.3929238,-8.892408
1421106121964.00,2.5330324,-2.467918,-9.042097
1421106121985.00,2.6295817,-2.3745122,-8.995244
1421106122061.00,2.5330324,-2.2906866,-8.914113
1421106122062.00,2.5018973,-2.3209236,-8.959469
1421106122066.00,2.439028,-2.3599923,-8.990903
1421106122067.00,2.5002508,-2.3263123,-8.859627
1421106122083.00,2.4929159,-2.3426285,-8.946595
1421106122104.00,2.5385711,-2.3809488,-8.945099
1421106122124.00,2.530937,-2.415976,-9.003178
1421106122143.00,2.436633,-2.2838008,-9.001232
1421106122164.00,2.4715104,-2.4260051,-8.946595
1421106122184.00,2.50055,-2.382296,-8.973839
1421106122203.00,2.5891657,-2.3360422,-8.952733
1421106122223.00,2.522255,-2.3730154,-8.931626
1421106122243.00,2.5982969,-2.3819966,-9.061855
1421106122263.00,2.5098307,-2.3013144,-9.014704
1421106122288.00,2.5219555,-2.3294559,-8.970246
1421106122304.00,2.4770489,-2.3695724,-9.025032
1421106122369.00,2.400558,-2.253414,-8.982371
1421106122370.00,2.3855891,-2.3695724,-8.937165
1421106122371.00,2.597249,-2.3694227,-8.872499
1421106122383.00,2.5499473,-2.4174728,-8.915909
1421106122403.00,2.555935,-2.3267615,-8.898396
1421106122423.00,2.580484,-2.1930895,-8.880882
1421106122443.00,2.4810905,-2.2689817,-9.010363
1421106122466.00,2.5888665,-2.14953,-8.802296
1421106122489.00,2.5879683,-2.3150856,-8.867859
1421106122503.00,2.5788374,-2.2550607,-8.878188
1421106122524.00,2.593357,-2.3784041,-8.951685
1421106122543.00,2.4834855,-2.2754183,-9.004974
1421106122563.00,2.4739056,-2.3996599,-8.972491
1421106122585.00,2.5538392,-2.380799,-8.928333
1421106122603.00,2.4980054,-2.3873854,-8.861722
1421106122678.00,2.484683,-2.3565495,-8.854986
1421106122679.00,2.5280929,-2.2992187,-8.933872
1421106122681.00,2.3839426,-2.403402,-8.8967495
1421106122685.00,2.4840844,-2.305356,-8.908424
1421106122703.00,2.5806336,-2.286645,-8.9425535
1421106122724.00,2.4884253,-2.4050486,-9.000783
1421106122744.00,2.566862,-2.3311024,-9.014404
1421106122764.00,2.4899223,-2.412084,-8.876541
1421106122784.00,2.4469614,-2.338437,-8.897946
1421106122804.00,2.496658,-2.1752765,-8.860075
1421106122824.00,2.4185207,-2.3056555,-9.0181465
1421106122844.00,2.5346792,-2.3099964,-8.971744
1421106122864.00,2.4887247,-2.2809567,-9.009464
1421106122886.00,2.583777,-2.2559588,-8.932824
1421106122904.00,2.5617728,-2.3056555,-8.923095
1421106122924.00,2.5173151,-2.3911276,-8.885673
1421106122945.00,2.4426205,-2.444267,-8.918155
1421106123016.00,2.528991,-2.3287075,-8.909472
1421106123018.00,2.5002508,-2.2700295,-8.87235
1421106123019.00,2.6101222,-2.2978716,-9.001681
1421106123023.00,2.60638,-2.4134312,-8.9513855
1421106123044.00,2.5360262,-2.346221,-8.868308
1421106123066.00,2.5902135,-2.3465204,-9.018296
1421106123083.00,2.5533903,-2.3107448,-8.858579
1421106123104.00,2.51028,-2.3704705,-8.846603
1421106123125.00,2.384691,-2.178869,-8.8862705
1421106123143.00,2.3388863,-2.249073,-8.992101
1421106123164.00,2.5197103,-2.3420298,-8.985814
1421106123184.00,2.4695644,-2.3195765,-8.950637
1421106123203.00,2.4436684,-2.2980213,-8.962762
1421106123224.00,2.5752447,-2.3155348,-8.975037
1421106123244.00,2.4995022,-2.347119,-8.844358
1421106123263.00,2.478546,-2.3346949,-8.892408
1421106123331.00,2.384242,-2.38993,-8.954379
1421106123332.00,2.4495063,-2.3550527,-8.870853
1421106123333.00,2.5776398,-2.36104,-8.951835
1421106123344.00,2.5268953,-2.3055058,-9.070088
1421106123364.00,2.5729995,-2.3315516,-8.950787
1421106123384.00,2.6391618,-2.3128405,-8.991352
1421106123404.00,2.508334,-2.3198757,-8.928782
1421106123424.00,2.5436604,-2.3969655,-8.952434
1421106123444.00,2.4454646,-2.3246658,-8.898096
1421106123467.00,2.4466622,-2.1686902,-9.016949
1421106123484.00,2.5801845,-2.3697221,-9.034313
1421106123504.00,2.3698719,-2.3156846,-8.945398
1421106123525.00,2.3433769,-2.3969655,-8.946745
1421106123544.00,2.4927664,-2.3035598,-8.9778805
1421106123563.00,2.4677682,-2.315385,-8.956775
1421106123639.00,2.4652236,-2.3658302,-8.968749
1421106123640.00,2.5622218,-2.3863375,-8.816067
1421106123642.00,2.5617728,-2.4158263,-8.919502
1421106123646.00,2.514022,-2.314038,-8.870554
1421106123664.00,2.639012,-2.3257136,-8.888666
1421106123684.00,2.634222,-2.2896388,-8.894953
1421106123704.00,2.529889,-2.381398,-8.887468
