time_milisec,ax,ay,az
1421106736874.00,-1.1380833,4.228257,8.948092
1421106736894.00,-1.2298425,4.269122,9.0132065
1421106736910.00,-1.1386821,4.3411226,8.963211
1421106736929.00,-1.192121,4.3670187,8.98297
1421106736952.00,-1.2027489,4.342919,9.127419
1421106736972.00,-1.1096425,4.235143,9.051228
1421106736990.00,-0.8475375,4.09698,9.225765
1421106737010.00,-1.0566527,4.078269,9.090896
1421106737030.00,-1.221909,4.1767645,8.760383
1421106737059.00,-1.2522959,4.3607316,9.019045
1421106737072.00,-1.1180251,4.3626776,9.043444
1421106737095.00,-0.9193881,4.1017704,8.76637
1421106737109.00,-0.83092207,4.076922,8.938064
1421106737130.00,-1.1978091,4.49156,8.841064
1421106737149.00,-1.3355228,4.623585,8.780441
1421106737170.00,-1.1434722,4.264931,8.733588
1421106737189.00,-1.1937675,4.165987,8.7282
1421106737209.00,-0.9871971,4.251459,8.961414
1421106737230.00,-0.84169966,4.0972795,9.21364
1421106737249.00,-0.83571213,3.8435574,9.296718
1421106737269.00,-0.9533675,4.074976,9.243578
1421106737290.00,-0.8440947,3.9999819,9.230405
1421106737310.00,-0.72015244,3.9805224,8.838071
1421106737329.00,-1.0442286,4.0362067,8.973839
1421106737350.00,-1.0966196,4.1866436,9.023386
1421106737369.00,-1.0888357,4.0546184,9.0165
1421106737389.00,-1.0217752,4.1200323,9.01201
1421106737410.00,-1.0368937,4.0667434,8.981772
1421106737430.00,-1.0725197,4.0906935,9.244027
1421106737449.00,-1.1238629,4.290977,9.138197
1421106737470.00,-1.1912228,4.2881327,9.009614
1421106737489.00,-1.1696677,4.2575965,8.9199505
1421106737510.00,-1.1317964,4.293821,8.988059
1421106737529.00,-1.0551558,4.208798,9.232651
1421106737549.00,-0.9054671,4.0944357,9.066646
1421106737570.00,-0.9957294,4.170028,9.074729
1421106737589.00,-0.98255676,4.033662,9.0076685
1421106737609.00,-1.0964699,4.208199,8.857531
1421106737630.00,-1.0565029,4.089047,8.945398
1421106737651.00,-0.9207353,3.9288797,9.080118
1421106737673.00,-0.82298857,3.89041,9.209898
1421106737690.00,-1.2120296,4.110452,9.145981
1421106737709.00,-1.0916798,4.0371046,9.268725
1421106737730.00,-0.95980406,4.031267,9.15571
1421106737750.00,-1.1258088,4.103417,9.19957
1421106737770.00,-1.0898836,4.14997,9.209599
1421106737792.00,-1.0407857,4.0963817,9.050928
1421106737811.00,-0.9527687,4.1239243,9.063353
1421106737830.00,-0.9621991,4.0122566,8.971145
1421106737849.00,-1.0734178,4.006718,8.986862
1421106737870.00,-1.0633887,4.1147933,8.966205
1421106737890.00,-0.97686857,4.070635,8.979228
1421106737913.00,-1.0777588,4.0665936,8.935069
1421106737930.00,-1.0193802,4.1716747,9.030122
1421106737950.00,-1.1066487,4.0531216,9.160051
1421106737969.00,-0.9627979,4.2089477,9.095984
1421106737990.00,-0.954565,4.2493634,9.18505
1421106738010.00,-0.94169176,4.2041574,9.123528
1421106738029.00,-0.9689351,4.2357416,9.131761
1421106738050.00,-0.8490344,4.0233335,9.192983
1421106738069.00,-0.8960367,4.0203395,9.023685
1421106738090.00,-0.9818083,4.0016284,8.988059
1421106738109.00,-0.95187056,4.141438,8.897049
1421106738136.00,-0.94708055,4.027824,8.865764
1421106738157.00,-0.99483126,4.1445813,8.969947
1421106738170.00,-1.0313553,4.1450305,8.993149
1421106738190.00,-1.1374846,4.3004074,9.092841
1421106738209.00,-1.0458751,4.1411386,9.232202
1421106738229.00,-1.0235715,4.0709343,9.259146
1421106738249.00,-1.0403366,4.000581,9.147778
1421106738269.00,-1.1139835,4.1348515,9.189989
1421106738289.00,-1.176703,4.131259,9.135503
1421106738309.00,-1.0750644,4.166885,9.177566
1421106738330.00,-0.9969269,4.159101,9.057365
1421106738349.00,-1.0400373,3.9977367,9.094039
1421106738396.00,-1.0704241,4.0233335,9.248817
1421106738396.00,-1.0897338,4.036955,9.147328
1421106738409.00,-0.97911394,4.097579,9.122629
1421106738430.00,-1.0446776,4.1302114,9.163943
1421106738449.00,-0.902623,3.952381,8.975037
1421106738469.00,-0.92567503,4.0329137,8.97833
1421106738489.00,-1.1431727,4.117338,9.128468
1421106738510.00,-1.0638378,4.060007,9.288634
1421106738530.00,-1.0650352,4.082011,9.15122
1421106738550.00,-1.1072475,4.166735,9.23774
1421106738570.00,-0.96429473,4.204906,8.97294
1421106738589.00,-1.053659,4.138893,8.897946
1421106738610.00,-1.0349479,4.049679,8.693023
1421106738631.00,-1.0249187,4.171226,8.760532
1421106738650.00,-0.98420334,4.248166,8.945996
1421106738726.00,-1.1343411,4.131109,9.114098
1421106738727.00,-0.9134006,4.3167233,9.013805
1421106738728.00,-0.9701326,4.3788443,9.114246
1421106738731.00,-1.0312057,4.48647,8.9988365
1421106738823.00,-1.054108,4.4756927,8.89136
1421106738824.00,-1.0159373,4.8286586,8.758138
1421106738825.00,-1.1329939,4.7833033,8.840766
1421106738828.00,-1.1038046,5.070855,8.909173
1421106738829.00,-1.0014175,5.395231,8.970995
1421106738857.00,-1.2609777,5.2124605,8.806038
1421106738929.00,-1.1542497,5.1135163,8.79541
1421106738930.00,-1.192121,4.98688,8.441995
1421106738931.00,-1.1075468,5.079986,8.415649
1421106738932.00,-0.9665401,5.168003,8.394993
1421106738997.00,-0.9261241,5.090165,8.571625
1421106738998.00,-0.6095325,4.99152,8.703501
1421106738998.00,-0.7548802,4.7927337,8.865464
1421106739066.00,-0.96234876,4.868476,9.001831
1421106739066.00,-0.8418494,4.8382387,9.07907
1421106739067.00,-0.7521858,4.7560596,8.805289
1421106739072.00,-0.8640033,4.72717,8.940009
1421106739126.00,-0.9716295,4.846322,9.043593
1421106739127.00,-0.9937834,4.618346,8.499775
1421106739134.00,-1.1683204,4.4792852,8.463699
1421106739195.00,-1.1220666,4.446204,8.640482
1421106739196.00,-0.7183562,4.1733217,8.414303
1421106739197.00,-0.7485933,3.917653,8.42538
1421106739232.00,-0.7590715,3.6736605,9.003627
1421106739232.00,-0.7038364,3.849994,9.048983
1421106739294.00,-0.7952962,3.370092,8.452772
1421106739295.00,-1.0722203,3.1804361,8.59363
1421106739295.00,-1.0732682,2.9542565,9.020093
1421106739349.00,-0.9969269,2.5724006,9.495205
1421106739350.00,-0.6979985,2.2843995,10.308164
1421106739350.00,-0.8147557,2.4153771,10.78642
1421106739418.00,-0.68811905,2.491868,10.639276
1421106739419.00,-0.861758,2.6346712,9.991123
1421106739420.00,-1.1930192,2.775229,9.969868
1421106739481.00,-0.9871971,3.0659244,10.052795
1421106739481.00,-0.7408095,2.8556118,9.571845
1421106739482.00,-0.5923183,2.95261,9.413923
1421106739502.00,-0.51298326,2.6182053,9.837093
1421106739551.00,-0.3637436,2.5863218,10.100246
1421106739552.00,-0.063767396,1.9441571,9.720187
1421106739552.00,0.50894165,1.7214203,9.102721
1421106739599.00,0.1791774,2.5623715,9.312136
1421106739600.00,-0.9852512,3.1470556,10.596165
1421106739667.00,-1.5136523,2.7562184,11.359279
1421106739669.00,-1.461411,2.0719912,11.280991
1421106739670.00,-1.1346405,1.9543359,10.784773
1421106739671.00,-1.2058923,2.2200334,10.438543
1421106739725.00,-1.7765057,2.1778212,10.961705
1421106739726.00,-2.5054898,2.1436923,12.388389
1421106739757.00,-2.5729995,1.4347664,13.843513
1421106739758.00,-1.0026151,1.5175443,13.059592
1421106739818.00,-0.40146515,1.0614427,11.446547
1421106739820.00,-1.7898281,0.8228389,11.157049
1421106739821.00,-2.8455825,1.3741424,11.923605
1421106739887.00,-2.7192452,1.7669257,12.729678
1421106739888.00,-1.9263442,1.8004559,11.4687
1421106739889.00,-1.8510507,1.6399896,10.379865
1421106739890.00,-1.8705102,1.8046472,9.812844
1421106739973.00,-1.445095,2.0185523,10.066117
1421106739974.00,-1.3769865,1.5352075,10.997031
1421106739975.00,-1.9926562,1.3850697,11.490406
1421106739976.00,-2.4692652,1.0755135,11.531421
1421106740007.00,-2.382745,1.1323951,11.477383
1421106740061.00,-2.0422032,1.4932947,10.701995
1421106740062.00,-2.2809567,1.4769787,9.948612
1421106740063.00,-2.5997937,1.5392491,10.121951
1421106740095.00,-2.4936645,1.497935,10.142459
1421106740095.00,-2.146237,1.0241703,10.152338
1421106740155.00,-1.6712745,0.9318123,10.1526375
1421106740156.00,-1.4929953,0.7803273,10.645412
1421106740157.00,-1.2858261,0.7720944,10.595267
1421106740192.00,-1.3464501,0.77718383,9.250763
1421106740193.00,-1.565295,0.97746736,8.359816
1421106740245.00,-1.3457016,1.1419753,8.495883
1421106740246.00,-0.98450273,1.1597883,8.511301
1421106740250.00,-1.0551558,1.3962964,7.725734
1421106740270.00,-1.2307407,1.9320323,7.6553807
1421106740295.00,-1.044977,2.1415966,7.795789
1421106740316.00,-0.91325086,2.2297633,7.8433895
1421106740332.00,-0.8015831,2.1234841,8.055199
1421106740350.00,-1.0609937,2.2796094,8.028854
1421106740421.00,-1.2909155,2.5565336,7.834558
1421106740421.00,-1.4429992,2.4267535,7.3417826
1421106740422.00,-1.2024494,2.4066954,6.725215
1421106740450.00,-1.02911,2.493814,6.897357
1421106740451.00,-1.006956,2.3417304,7.6342745
1421106740470.00,-0.84065187,2.3956182,8.275242
1421106740490.00,-0.9671388,2.3040087,8.450976
1421106740511.00,-0.97192883,2.3682253,8.457712
1421106740531.00,-0.9060658,2.1936882,8.449629
1421106740575.00,-0.88705534,2.229314,8.870704
1421106740575.00,-0.9698332,2.4041505,9.327254
1421106740590.00,-1.3120216,2.5771906,9.515712
1421106740610.00,-1.2615765,2.4040008,9.371412
1421106740630.00,-1.4615607,2.5004003,9.29552
1421106740650.00,-1.4696438,2.542912,9.258247
1421106740670.00,-1.4129119,2.6797276,9.504186
1421106740741.00,-1.7551003,2.816992,9.572743
1421106740742.00,-1.7218693,3.1322365,9.221724
1421106740743.00,-1.72157,3.3744328,8.991202
1421106740773.00,-1.651815,3.514392,8.904084
1421106740774.00,-1.5593075,3.3428485,9.298513
1421106740790.00,-1.509461,3.2891102,9.614806
1421106740810.00,-1.4398558,3.3362622,9.581875
1421106740830.00,-1.4211447,3.6083963,9.249865
1421106740851.00,-1.4239888,3.4828074,8.948542
1421106740896.00,-1.4747332,3.2895594,8.9320755
1421106740898.00,-1.3042378,3.1847773,9.195678
1421106740911.00,-1.3677058,3.4093103,9.051527
1421106740930.00,-1.4293776,3.6991076,8.7334385
1421106740952.00,-1.4245876,3.8070333,8.908574
1421106740972.00,-1.5123051,3.6158807,8.899593
1421106740990.00,-1.3633648,3.614384,9.049132
1421106741056.00,-1.5182927,3.7293448,9.125922
1421106741057.00,-1.4281801,3.7151244,9.125623
1421106741058.00,-1.3724959,3.6338434,9.104966
1421106741089.00,-1.3189073,3.6913238,9.198671
1421106741092.00,-1.5441889,3.7410204,9.094638
1421106741110.00,-1.2874727,3.9954913,8.871152
1421106741130.00,-1.3515395,4.14024,8.826395
1421106741150.00,-1.5557148,4.2782536,8.929531
1421106741175.00,-1.5190412,4.161047,9.268276
1421106741207.00,-1.3224999,3.963458,9.419013
1421106741213.00,-1.2033477,3.716322,9.366622
1421106741231.00,-1.0918295,3.6684215,9.336984
1421106741250.00,-1.0448272,3.4988241,9.223669
1421106741270.00,-0.98944247,3.676355,9.328301
1421106741292.00,-0.8268805,3.6338434,9.31962
1421106741312.00,-0.87493056,3.5076559,9.273366
1421106741330.00,-0.83631086,3.6398308,9.365724
1421106741406.00,-0.9122031,3.8824763,9.322314
1421106741408.00,-0.9840537,3.8992414,9.013805
1421106741409.00,-1.1621833,4.2689724,8.784931
1421106741410.00,-1.2802876,4.2429266,8.738079
1421106741438.00,-1.3126204,4.2182283,8.968151
1421106741452.00,-1.3338761,4.27017,8.959768
1421106741474.00,-1.3894107,4.229754,9.120684
1421106741491.00,-1.2861255,4.1200323,9.166637
1421106741511.00,-1.2790902,4.0746765,9.153615
1421106741539.00,-1.3546829,4.247717,9.033415
1421106741550.00,-1.3973442,4.4230022,8.961714
1421106741571.00,-1.3834232,4.306694,8.870853
1421106741590.00,-1.3904586,4.2460704,8.81936
1421106741610.00,-1.3230987,4.264482,9.010662
1421106741631.00,-1.2663666,4.2378373,9.013955
1421106741651.00,-1.1985576,4.2426276,9.113199
1421106741670.00,-1.2205619,4.079467,9.052126
1421106741742.00,-1.2037967,4.0487804,9.12727
1421106741743.00,-1.056952,3.922144,9.198072
1421106741744.00,-1.0096505,3.9065762,9.287137
1421106741780.00,-1.0467732,3.97199,9.108559
1421106741781.00,-1.205593,4.073479,9.033864
1421106741790.00,-1.3840219,4.0627017,9.25705
1421106741810.00,-1.3540841,4.367468,9.139095
1421106741830.00,-1.2112812,4.3099875,9.094488
1421106741865.00,-1.5462844,4.3873763,7.9644876
1421106741873.00,-1.3811778,4.6014314,9.459878
1421106741913.00,-1.1400293,4.3186693,9.110654
1421106741914.00,-1.7799486,4.344116,8.750953
1421106741979.00,-1.6368462,4.466412,8.974138
1421106741980.00,-1.3220508,4.2963657,9.308094
1421106741980.00,-1.1394305,4.255501,9.269624
1421106741990.00,-1.4275813,4.3974056,9.0060215
1421106742011.00,-1.2521461,4.3243575,9.22337
1421106742030.00,-1.1419753,4.291875,9.3486595
1421106742050.00,-1.151705,4.1167393,9.3944645
1421106742071.00,-1.0738668,4.131259,9.225765
1421106742091.00,-0.98674804,4.224365,9.099876
1421106742110.00,-1.1014096,4.2628355,9.148825
1421106742130.00,-1.1332933,4.0954833,9.519604
1421106742150.00,-1.0792557,4.295767,9.329948
1421106742169.00,-0.959355,4.093088,9.301507
1421106742190.00,-1.0024654,4.181255,9.181158
1421106742210.00,-1.0488689,4.033662,9.381291
1421106742232.00,-0.9247769,3.8621187,9.22801
1421106742252.00,-0.9557625,3.966302,9.065897
1421106742273.00,-0.932411,3.8987925,9.061257
1421106742292.00,-0.7740404,3.724405,9.120833
1421106742310.00,-0.658331,3.5328035,9.278605
1421106742330.00,-0.66821045,3.6097436,9.294472
1421106742350.00,-0.8161029,3.7832327,9.315878
1421106742372.00,-0.81011534,3.8526883,9.144933
1421106742393.00,-0.7589218,3.7479062,8.879984
1421106742412.00,-0.7779323,3.8347256,8.981772
1421106742432.00,-0.8529263,3.8371208,9.053174
1421106742453.00,-0.7351213,3.7862265,9.1025715
1421106742469.00,-0.6592291,3.680097,9.328152
1421106742490.00,-0.5465135,3.5908828,9.384884
1421106742512.00,-0.77583665,3.8514907,9.356593
1421106742530.00,-0.7702982,3.9616616,9.142388
1421106742550.00,-0.53783154,3.8574784,8.936716
1421106742570.00,-0.64979875,3.8925054,9.215885
1421106742591.00,-0.71221894,3.883674,9.247021
1421106742611.00,-0.5387297,3.8944514,9.142538
1421106742630.00,-0.69725007,3.87589,9.109158
1421106742650.00,-0.55549484,4.0154,8.905281
1421106742670.00,-0.66282165,3.836971,8.894953
1421106742691.00,-0.6490503,3.889362,9.129215
1421106742710.00,-0.90950865,3.9356158,9.191936
1421106742730.00,-0.93121356,3.935466,9.222322
1421106742750.00,-0.9235794,4.039799,9.042846
1421106742771.00,-0.93615323,4.088897,9.074879
1421106742793.00,-0.87942123,4.1161404,8.993598
1421106742810.00,-0.94393706,4.085903,8.728499
1421106742830.00,-0.93884766,4.138893,8.917406
1421106742850.00,-1.006956,4.1435337,9.011261
1421106742873.00,-0.85502195,4.0579114,9.17502
1421106742890.00,-0.9833052,4.081263,9.02638
1421106742910.00,-1.0048604,4.2171803,9.02593
1421106742930.00,-1.0098001,4.2796006,8.9530325
1421106742950.00,-0.7406598,4.1845484,8.848101
1421106742970.00,-0.9153465,4.2032595,8.975336
1421106742994.00,-0.8985814,4.109255,9.26154
1421106743015.00,-0.8596623,4.3179207,9.136102
1421106743030.00,-0.9051677,4.323459,8.733289
1421106743050.00,-1.3421091,4.5951443,9.419013
1421106743073.00,-0.8219408,4.1487727,8.94435
1421106743114.00,-0.70712954,3.923042,9.074879
1421106743115.00,-0.8063731,4.233646,9.091644
1421106743159.00,-0.866548,4.078868,8.831185
1421106743160.00,-0.8292755,3.937412,8.854836
1421106743180.00,-0.7225475,4.0079155,9.040899
1421106743219.00,-0.69096315,3.854784,9.016351
1421106743220.00,-0.7433542,4.1820035,8.812175
1421106743246.00,-0.88451064,4.300108,8.905281
1421106743251.00,-0.9092093,4.315825,9.043444
1421106743278.00,-0.91774154,4.2291555,9.028325
1421106743290.00,-0.83122146,4.240382,9.033864
1421106743315.00,-0.90022796,4.313131,9.00662
1421106743350.00,-1.0620415,4.3728566,8.98761
1421106743351.00,-1.069975,4.3646235,9.067095
1421106743379.00,-1.0581496,4.450994,9.114845
1421106743399.00,-1.0503658,4.3722577,8.956026
1421106743420.00,-1.1443703,4.368366,8.965606
1421106743441.00,-0.9783655,4.235592,8.965905
1421106743450.00,-0.93091416,4.255351,9.162297
1421106743470.00,-0.7746391,4.2352924,9.095984
1421106743490.00,-0.8747809,4.0435414,8.982521
1421106743510.00,-0.92687255,4.1929307,9.003926
1421106743531.00,-1.024769,4.294869,8.941207
1421106743550.00,-0.96579164,4.243376,8.758437
1421106743571.00,-1.1491603,4.344116,8.932824
1421106743590.00,-1.119971,4.356391,9.079968
1421106743615.00,-0.99587905,4.22706,9.174272
1421106743630.00,-1.0597961,4.1724234,8.94929
1421106743651.00,-1.1268567,4.280798,8.811127
1421106743670.00,-1.2109817,4.318969,8.80484
1421106743693.00,-1.0731184,4.35205,8.996741
1421106743710.00,-1.011746,4.300707,8.956026
1421106743731.00,-0.997825,4.195775,8.869805
1421106743750.00,-0.8352631,4.2531056,8.878338
1421106743771.00,-0.9701326,4.3301954,8.887768
1421106743790.00,-1.0873389,4.3011556,8.878936
1421106743813.00,-1.1325449,4.280798,8.686586
1421106743833.00,-1.1611354,4.3167233,8.83852
1421106743853.00,-1.289718,4.1568556,9.209748
1421106743876.00,-1.1994557,4.489165,9.154663
1421106743894.00,-1.267564,4.2492137,8.985515
1421106743910.00,-1.3199551,4.3400745,8.935518
1421106743931.00,-1.4350657,4.2685237,9.131012
1421106743950.00,-1.5605049,4.4725494,9.159452
1421106744046.00,-1.624871,4.3619294,8.9690485
1421106744047.00,-1.411415,4.39052,9.099876
1421106744049.00,-1.3479469,4.3652225,9.105715
1421106744050.00,-1.4341676,4.3498044,8.926388
1421106744051.00,-1.631607,4.6358595,8.957073
1421106744071.00,-1.517694,4.5762835,8.724607
1421106744098.00,-1.445544,4.474645,8.97818
1421106744113.00,-1.2677138,4.3983035,8.956026
1421106744135.00,-1.2519965,4.4129734,8.952284
1421106744150.00,-1.4768289,4.8984137,7.856113
1421106744170.00,-2.0272343,4.874164,8.960068
1421106744209.00,-1.6328045,4.496799,8.720266
1421106744218.00,-1.4739848,4.4060874,8.796308
1421106744236.00,-1.5555652,4.661157,8.933573
1421106744253.00,-1.4944922,4.6041255,8.642428
1421106744271.00,-1.4183006,4.447252,8.54977
1421106744293.00,-1.4380596,4.4990444,8.666827
1421106744312.00,-1.2368779,4.4421625,8.753497
1421106744330.00,-1.1526031,4.3251057,8.931626
1421106744350.00,-1.0585986,4.4247985,8.992999
1421106744370.00,-1.1346405,4.361031,9.012159
1421106744390.00,-1.1530522,4.3650727,9.172476
1421106744411.00,-1.207539,4.437971,9.147628
1421106744430.00,-1.1915222,4.47689,8.943003
1421106744450.00,-1.2081376,4.461173,8.738229
1421106744471.00,-1.0106982,4.344116,8.762329
1421106744491.00,-1.0744656,4.332441,9.079819
1421106744512.00,-0.98540086,4.3083405,9.086555
1421106744532.00,-1.0400373,4.2939706,9.063502
1421106744551.00,-0.9916878,4.0876994,8.867559
1421106744570.00,-1.1997551,4.1122484,8.943602
1421106744591.00,-1.0801538,4.170028,8.903186
1421106744611.00,-1.2072395,4.341572,9.010812
1421106744631.00,-1.0985656,4.2900786,8.947194
1421106744653.00,-0.9422905,4.219725,9.151818
1421106744671.00,-0.9957294,4.2165813,9.148825
1421106744691.00,-1.0855426,4.2926235,8.918604
1421106744711.00,-1.2138258,4.217779,8.837921
1421106744731.00,-1.1259586,4.1733217,8.9635105
1421106744752.00,-0.8681946,4.2001157,8.9988365
1421106744770.00,-1.0277628,4.319567,8.829539
1421106744791.00,-1.0560539,4.2632847,8.751551
1421106744813.00,-1.0996133,4.1748185,8.877889
1421106744831.00,-1.0337503,4.059558,9.053773
1421106744852.00,-1.0304571,4.1547604,9.008567
1421106744871.00,-1.0285112,4.276906,8.972491
1421106744891.00,-1.0184821,4.2123904,8.993149
1421106744911.00,-1.019979,4.124673,8.9683
1421106744933.00,-1.0005194,4.256848,8.960517
1421106744954.00,-1.0241703,4.238137,8.79032
1421106744973.00,-1.1100916,4.215384,8.9778805
1421106744990.00,-1.131497,4.3002577,9.082363
1421106745011.00,-0.975222,4.312382,9.1185875
1421106745031.00,-1.0268646,4.069288,9.15571
1421106745051.00,-0.9216335,4.098926,9.077872
1421106745074.00,-1.0559043,4.0007305,9.109008
1421106745094.00,-0.9574091,4.0511756,9.133407
1421106745114.00,-0.9687854,4.099525,9.0004835
1421106745130.00,-0.86954176,4.047583,8.928333
1421106745151.00,-1.1283536,4.055367,8.926837
1421106745170.00,-1.0705737,4.235592,8.991801
1421106745193.00,-1.0988649,4.199667,9.025032
1421106745213.00,-1.0427316,4.0633,8.901838
1421106745233.00,-1.0457253,4.0564146,8.972641
1421106745253.00,-0.9741742,4.1192837,9.12233
1421106745274.00,-1.1153307,4.060606,9.087902
1421106745293.00,-1.1915222,3.9299276,9.133257
1421106745313.00,-1.0732682,4.0800653,9.245075
1421106745334.00,-1.1368859,4.1956253,9.120684
1421106745353.00,-1.2174183,4.195775,9.075777
1421106745373.00,-1.2683126,4.2221203,9.157657
1421106745391.00,-1.3605208,4.287235,9.1202345
1421106745410.00,-1.1954141,4.0856037,9.24223
1421106745430.00,-1.1624826,4.092939,9.090446
1421106745451.00,-1.1771522,4.1004233,9.169632
1421106745470.00,-1.2626244,4.16928,9.176368
1421106745490.00,-1.3428575,3.9827678,9.144933
1421106745511.00,-1.35124,4.1228766,9.241781
1421106745532.00,-1.1963123,4.0180945,9.107061
1421106745551.00,-1.1491603,4.131259,9.1251745
1421106745571.00,-0.99647784,4.130361,9.075777
1421106745592.00,-1.1593392,3.974984,8.964707
1421106745613.00,-1.1000624,4.0968304,9.030421
1421106745633.00,-0.9812096,3.9085221,9.09838
1421106745654.00,-1.0963202,3.9351668,9.178762
1421106745673.00,-1.0225236,3.8800814,9.194031
1421106745693.00,-1.1937675,4.0085144,9.12203
1421106745713.00,-1.1091934,4.056115,9.116792
1421106745731.00,-1.1570938,4.1050634,9.135203
1421106745754.00,-1.1446697,4.214785,9.070538
1421106745771.00,-1.1823912,4.112997,9.09868
1421106745794.00,-1.2918136,4.0348597,8.948242
1421106745812.00,-1.2229569,3.9353166,9.030421
1421106745831.00,-1.215173,4.174669,9.1378975
1421106745851.00,-1.1593392,4.154311,9.206156
1421106745871.00,-1.1523038,3.87589,9.163494
1421106745893.00,-1.2521461,4.098627,9.12697
1421106745914.00,-1.2109817,4.019891,9.2118435
1421106745933.00,-1.1274555,4.1736207,9.207503
1421106745953.00,-1.0812017,4.0698867,9.110056
1421106745977.00,-1.099314,4.126619,8.98776
1421106746014.00,-1.3160633,4.0254292,8.96381
1421106746015.00,-1.2717553,4.1341033,9.112001
1421106746032.00,-1.2584331,4.0261774,9.156609
1421106746052.00,-1.1750565,4.10671,9.042846
1421106746074.00,-1.1900253,4.016747,9.002579
1421106746092.00,-1.1961626,4.056864,8.970396
1421106746111.00,-1.2689112,3.9320233,9.132509
1421106746132.00,-1.1413765,3.9731877,9.163794
1421106746151.00,-1.1657758,3.998485,9.180859
1421106746171.00,-1.1621833,4.081413,9.072933
1421106746192.00,-1.335373,4.2152343,8.971594
1421106746211.00,-1.2015513,4.263883,9.035511
1421106746231.00,-1.1792477,4.1242237,9.103319
1421106746251.00,-1.2648697,3.987857,9.076376
1421106746272.00,-1.1946657,4.0402484,9.066795
1421106746294.00,-1.2588822,3.9941442,9.203012
1421106746320.00,-1.2030482,4.0555167,9.240734
1421106746332.00,-1.1222163,3.985013,9.051078
1421106746352.00,-1.1805949,4.03471,9.158256
1421106746373.00,-1.1777508,3.9854622,9.10302
1421106746391.00,-1.2296928,3.9692957,9.212892
1421106746414.00,-1.0627899,4.142935,9.035361
1421106746434.00,-1.1960129,4.1291633,8.9409075
1421106746453.00,-1.1350895,4.103267,8.864716
1421106746473.00,-1.0981164,4.0433917,8.909323
1421106746571.00,-1.1924204,4.0453377,9.097033
1421106746572.00,-1.2025992,3.9724393,9.1129
1421106746573.00,-1.2255015,4.1276665,9.156908
1421106746575.00,-1.2542418,4.1541615,9.003327
1421106746576.00,-1.1904744,3.9838157,9.147926
1421106746638.00,-1.2120296,4.205654,9.156309
1421106746642.00,-1.2510983,4.158652,8.961115
1421106746643.00,-1.2061917,4.1068597,9.0406
1421106746712.00,-1.0903326,4.051475,9.050928
1421106746713.00,-1.2533437,4.2983117,8.934471
1421106746714.00,-1.298849,4.139492,8.94435
1421106746715.00,-1.1323951,4.1607475,9.058113
1421106746765.00,-1.1900253,4.059408,9.111702
1421106746765.00,-1.1409274,4.0604563,9.000633
1421106746824.00,-1.3003459,4.167484,9.044043
1421106746826.00,-1.2338841,4.013903,9.087603
1421106746829.00,-1.0467732,4.1698785,9.134455
1421106746830.00,-1.1672727,3.997587,9.076974
1421106746892.00,-1.2186159,4.089346,9.057665
1421106746893.00,-1.1937675,4.113596,8.899743
1421106746894.00,-1.1593392,4.256848,9.035959
1421106746937.00,-1.2241544,4.2453218,9.0446415
1421106746938.00,-1.1762539,4.008215,8.962762
1421106746992.00,-1.1972104,4.184698,8.984167
1421106746993.00,-1.0803035,3.995641,8.979378
1421106746994.00,-1.0339,4.039949,8.904982
1421106747038.00,-1.2153227,4.0050716,9.039552
1421106747040.00,-1.2105327,4.2201743,9.045091
1421106747086.00,-1.013243,4.2311015,8.784782
1421106747087.00,-1.1015593,4.1805067,8.698412
1421106747117.00,-1.2442126,4.187093,8.625064
1421106747118.00,-1.267115,4.0185432,8.809481
1421106747137.00,-1.2443624,4.2132883,8.971444
1421106747162.00,-1.3687537,4.290528,8.935518
1421106747213.00,-1.1144326,4.1406894,9.515712
1421106747214.00,-0.87373304,3.8288877,9.567654
1421106747214.00,-1.0060579,3.4847534,9.509275
1421106747257.00,-1.4843134,3.9576201,8.63659
1421106747257.00,-1.3087285,3.9577699,8.350236
1421106747305.00,-1.321003,4.0517745,8.193661
1421106747306.00,-1.2237053,4.0835085,8.550968
1421106747401.00,-1.1371852,4.1826024,8.797955
1421106747403.00,-1.2386742,3.8109252,11.128009
1421106747405.00,-1.4920971,4.271667,9.5699
1421106747406.00,-1.3115726,4.6873527,8.906928
1421106747408.00,-0.93091416,4.4598255,8.382119
1421106747421.00,-0.8161029,4.1435337,8.571326
1421106747478.00,-0.8957373,3.7253032,9.189989
1421106747479.00,-0.9062155,3.6054025,9.6532755
1421106747480.00,-0.98135924,3.5842965,9.8535595
1421106747509.00,-0.6396199,3.6955152,9.845626
1421106747511.00,-0.35251695,3.2578254,9.288934
1421106747567.00,-0.4406836,3.531157,9.142239
1421106747568.00,-0.8265811,3.9404058,9.75716
1421106747572.00,-0.5647755,3.791316,9.4981985
1421106747629.00,-0.5284012,3.7567377,9.304801
1421106747630.00,-0.49023056,3.5783088,9.363179
1421106747631.00,-0.3740721,3.3997302,9.2311535
1421106747690.00,-0.57794815,3.6001635,9.26678
1421106747691.00,-0.86579955,3.8179605,9.33414
1421106747692.00,-0.809816,3.3627572,9.390722
1421106747724.00,-0.46104127,3.6314483,8.519683
1421106747779.00,-0.3055147,3.6574943,8.577014
1421106747780.00,-0.9219328,4.2739124,9.762698
1421106747781.00,-0.79799056,3.8775365,10.097253
1421106747809.00,-0.81280977,3.6769538,9.070987
1421106747810.00,-0.66910857,3.740272,8.766669
1421106747832.00,-0.55399793,3.7949085,9.360485
1421106747851.00,-0.5689668,3.92409,9.473351
1421106747922.00,-0.63887143,3.7344341,9.807455
1421106747922.00,-0.3992198,3.6964133,9.472153
1421106747924.00,-0.28096572,3.5160384,9.201515
1421106747956.00,-0.39068756,3.8631666,8.777447
1421106747958.00,-0.76371187,4.277954,8.93477
1421106747973.00,-0.6252498,3.912414,9.047336
1421106747991.00,-0.18905686,3.4723291,9.180559
1421106748011.00,-0.07349716,3.2889605,9.016351
1421106748031.00,-0.5879773,3.85673,8.806038
1421106748074.00,-0.84858537,4.094286,9.168135
1421106748074.00,-0.79709244,3.6853364,9.1251745
1421106748093.00,-0.5471123,3.6919227,8.445587
1421106748111.00,-0.58079225,4.1589513,8.33347
1421106748131.00,-0.84229845,4.0823107,9.210048
1421106748152.00,-1.0138417,3.9487884,9.052875
1421106748171.00,-1.2268487,4.046984,8.921148
1421106748194.00,-1.1506572,3.6286042,9.535471
1421106748272.00,-0.88974977,4.331243,8.445288
1421106748272.00,-0.71626055,4.184698,8.489296
1421106748273.00,-1.0231224,3.9630089,8.726703
1421106748274.00,-1.3536351,4.2900786,8.985365
1421106748323.00,-1.8214123,4.429439,8.9442005
1421106748325.00,-2.0049307,4.3017545,9.0920925
1421106748333.00,-1.7049545,4.3697133,9.352102
1421106748352.00,-1.6449294,4.610712,8.424931
1421106748372.00,-2.0411553,4.5071273,8.16043
1421106748406.00,-1.9878662,4.0285726,8.979228
1421106748412.00,-2.0065773,4.142935,9.408834
1421106748432.00,-1.8175205,4.2215214,9.3289
1421106748452.00,-2.1074674,4.017346,8.969498
1421106748471.00,-1.927392,3.2928524,8.660241
1421106748491.00,-1.9320323,3.9727387,9.26663
1421106748511.00,-1.8615289,4.044739,9.8784075
1421106748581.00,-1.6572038,3.3241374,10.145902
1421106748583.00,-1.4850618,3.1500494,9.765991
1421106748583.00,-1.5967296,3.514392,8.600815
1421106748610.00,-1.4403049,4.2489142,8.014633
1421106748611.00,-1.217568,4.3498044,8.154443
1421106748635.00,-0.9927356,4.2969646,8.407866
1421106748654.00,-1.3178595,4.099076,8.707093
1421106748671.00,-1.2025992,4.054169,8.897497
1421106748691.00,-1.2241544,4.19323,8.296348
1421106748715.00,-1.0996133,4.20775,8.352331
1421106748731.00,-0.7547305,4.093687,9.087303
1421106748760.00,-0.4867877,3.8612206,9.510324
1421106748771.00,-0.35311568,3.5548077,8.928184
1421106748797.00,0.53109556,3.3346157,7.882458
1421106748811.00,0.5451663,1.6184344,11.755505
1421106748831.00,0.5638774,1.5715818,10.541529
1421106748902.00,0.6941066,1.79851,8.972791
1421106748903.00,0.9726773,2.7132578,7.6136174
1421106748903.00,0.8696915,2.7957363,6.8135314
1421106748938.00,1.0530602,3.448379,7.3591466
1421106748939.00,1.2073892,3.2028894,8.185279
1421106748951.00,0.72928345,3.132536,8.637788
1421106748973.00,-0.54696256,3.2506402,8.448132
1421106748991.00,-1.6937279,2.8345056,9.091644
1421106749010.00,-1.7441729,2.9192295,11.6371
1421106749031.00,-1.0328522,2.7225385,11.8548975
1421106749070.00,-1.0618918,2.6782305,10.603201
1421106749070.00,-1.0403366,3.457061,11.392809
1421106749091.00,-1.119522,3.7675154,11.21393
1421106749110.00,-1.4715898,2.9259653,10.966196
1421106749133.00,-1.8538948,2.9216244,10.616822
1421106749151.00,-2.8372,4.177962,13.099858
1421106749173.00,-1.7592915,2.965633,11.858191
1421106749223.00,0.39338195,6.0800567,5.3000283
1421106749224.00,-0.2163002,6.5657964,7.7486367
1421106749260.00,-1.651815,11.8267565,7.493567
1421106749262.00,2.9574,6.9522924,3.869753
1421106749271.00,2.3162832,3.4461336,-0.33500335
1421106749291.00,0.5517526,1.5355068,1.9743942
1421106749312.00,2.29383,0.13067825,9.183403
1421106749359.00,2.3790028,1.9700532,8.004754
1421106749360.00,3.2867153,1.9779868,7.9011693
1421106749371.00,-0.5885761,0.38709503,5.526807
1421106749393.00,0.54082537,-1.1984079,4.673581
1421106749413.00,1.5398479,-0.90337145,6.6162415
1421106749432.00,3.25558,-1.3855188,6.3108764
1421106749452.00,4.358337,-1.0904824,5.9872494
1421106749471.00,7.2452335,-1.1279045,5.8667502
1421106749495.00,10.750943,-0.99872315,6.0444307
1421106749511.00,11.99815,-1.7977616,7.2908883
1421106749644.00,11.88259,-2.2436843,8.293803
1421106749645.00,12.277918,-2.2757177,7.6413097
1421106749649.00,12.491524,-1.6968713,5.8809705
1421106749651.00,11.947555,-2.2513185,5.0487013
1421106749656.00,11.579321,-2.7422974,6.2839327
1421106749657.00,13.329781,-2.9056077,6.584208
1421106749658.00,14.838493,-1.4995816,6.12167
1421106749702.00,14.726227,-1.8068925,5.41963
1421106749703.00,14.192436,-4.046236,2.9856913
1421106749724.00,10.484497,-3.3191977,0.21854553
1421106749746.00,9.179661,-3.652854,0.9618997
1421106749756.00,9.8414345,-5.511688,-1.1163784
1421106749772.00,10.659334,-6.7548532,-1.8291962
1421106749795.00,8.438851,-3.5889368,0.14684464
1421106749811.00,6.1159816,-2.1486318,0.40505767
1421106750106.00,6.435118,-3.9511836,-0.26225463
1421106750107.00,7.5241036,-4.318969,-1.2449611
1421106750114.00,5.53968,-4.885241,-3.76527
1421106750114.00,2.6286836,-5.94369,-3.5693276
1421106750115.00,4.3983035,-6.9248996,-2.4839346
1421106750116.00,6.9792366,-5.5301,-3.121459
1421106750117.00,8.328381,-4.8945217,-2.621798
1421106750118.00,8.639883,-5.89085,-1.4751823
1421106750119.00,8.933423,-6.821016,-1.1190729
1421106750120.00,8.032297,-5.993237,-1.2924124
1421106750121.00,7.281458,-5.213808,-1.9799327
1421106750122.00,7.6553807,-6.2045975,-2.0550764
1421106750123.00,8.156388,-5.9555154,-0.9689351
1421106750124.00,6.9296894,-3.8236487,-2.1531227
1421106750141.00,7.244485,-4.4493475,-2.532284
1421106750160.00,7.697892,-5.0719028,-1.9070343
1421106750175.00,6.959328,-3.747008,-1.2775933
1421106750192.00,6.403534,-3.617228,-0.4101471
1421106750211.00,7.4693174,-3.441643,2.2849984
1421106750334.00,7.947124,-2.8258238,3.7568874
1421106750335.00,7.763306,-3.0767019,3.075205
1421106750336.00,7.8737764,-3.1566358,4.4719505
1421106750338.00,8.659792,-3.672014,6.443201
1421106750339.00,9.898766,-4.2200246,7.433542
1421106750340.00,10.836565,-3.944148,8.158185
1421106750360.00,10.408456,-3.2078292,6.908284
1421106750393.00,10.089918,-3.823499,4.657415
1421106750394.00,7.86719,-2.1547692,1.1388317
1421106750424.00,8.095166,-3.8977447,-0.18696122
1421106750432.00,7.1730833,-4.179309,-1.9279907
1421106750452.00,6.4595175,-3.1846275,-2.7322683
1421106750601.00,7.5968523,-4.4147696,-4.3598337
1421106750602.00,5.660479,-5.963449,-6.91502
1421106750603.00,1.0602452,-7.567214,-4.764891
1421106750604.00,0.8551717,-8.433014,-2.3083498
1421106750605.00,-3.3042288,-3.6645296,-4.170627
1421106750606.00,1.8841319,-10.833422,4.1867933
1421106750607.00,8.679701,-0.24234603,16.655115
1421106750620.00,7.3798037,-15.395934,-11.201507
1421106750632.00,8.516689,-12.800481,-9.851463
1421106750652.00,8.340955,-13.744718,0.48588958
1421106750672.00,5.052743,-11.54624,0.2004332
1421106750691.00,4.0772214,-13.000615,-0.21450394
1421106750712.00,3.8646634,-13.591137,0.36583924
1421106750732.00,5.314249,-12.383598,-1.0217752
1421106750751.00,3.5328035,-6.600524,-0.120349735
1421106750773.00,3.4271233,-1.3698015,-4.6744795
1421106750794.00,4.704118,-4.9874783,-4.1887393
1421106750895.00,3.7027001,-6.6271687,-4.7027707
1421106750896.00,1.835034,-5.5375843,9.313183
1421106750897.00,2.6695487,-5.7097263,-0.18291962
1421106750898.00,2.3221211,-5.6227574,-3.6278558
1421106750899.00,1.6289127,-5.5405784,-3.1916628
1421106750916.00,0.5626799,-5.5762043,-1.404679
1421106750931.00,-0.34024248,-6.1061025,-0.9285191
1421106750952.00,-2.2373972,-10.209669,-2.457739
1421106750973.00,-0.4764592,-8.566835,0.04565506
1421106750991.00,-0.12528946,-6.6234264,1.0538086
1421106751014.00,-0.68752027,-3.3804204,2.6054819
1421106751032.00,-1.5280224,-2.9611423,0.74634796
1421106751052.00,-1.4799724,-2.9068053,-1.3566289
1421106751072.00,-0.85816544,-2.771337,-1.1304492
1421106751092.00,-0.5692662,-3.29884,0.9020242
1421106751112.00,-11.864478,-15.420782,4.0978785
1421106751180.00,-6.893914,-17.961899,2.1754262
1421106751181.00,-0.19818787,-3.9489381,-2.4188201
1421106751182.00,-0.7803273,-0.6554869,-2.9142897
1421106751199.00,-1.3374687,-2.0477417,-1.6304096
1421106751215.00,-4.6038265,-13.091626,-1.4843134
1421106751234.00,-1.6368462,-9.970766,-0.08113129
1421106751251.00,-1.5643969,-9.0197935,0.46358597
1421106751275.00,-2.7424471,-10.139614,0.24548951
1421106751293.00,-2.91893,-9.782308,0.16675323
1421106751311.00,-3.9977367,-10.179432,0.37302428
1421106751333.00,-4.292324,-8.998387,-0.052241363
1421106751351.00,-3.3308735,-9.127569,-0.5689668
1421106751372.00,-2.4527993,-9.509425,-0.837209
1421106751392.00,-2.3297553,-9.644594,-1.3133688
1421106751411.00,-3.016078,-9.229657,-1.1466156
1421106751432.00,-3.5775604,-9.295819,-0.6979985
1421106751509.00,-3.0210178,-9.328601,-0.78945833
1421106751511.00,-2.7343638,-9.663006,-1.0359956
1421106751511.00,-2.586621,-9.981094,-1.0491682
1421106751513.00,-2.981051,-9.76689,-1.9866687
1421106751533.00,-2.5023463,-8.510253,-1.0424323
1421106751551.00,-3.3543746,-8.819659,-0.83032334
1421106751572.00,-3.5208285,-8.389304,-2.2867947
1421106751592.00,-2.2131476,-8.955427,-1.936972
1421106751612.00,-1.0972183,-9.5246935,-1.3865666
1421106751633.00,-0.76161623,-9.079669,-1.7384849
1421106751651.00,-1.6956738,-8.639284,-2.0758832
1421106751673.00,-3.4311647,-8.686437,-2.475552
1421106751691.00,-3.9218445,-8.933872,-3.4061668
1421106751711.00,-2.58722,-8.565937,-4.16943
1421106751732.00,-1.7440233,-9.006171,-3.1433134
1421106751751.00,-2.0733385,-9.055718,-1.9941531
1421106751771.00,-3.059787,-8.459508,-3.132536
1421106751834.00,-2.3884332,-8.734187,-4.8777566
1421106751835.00,-1.2946577,-9.325757,-5.1003437
1421106751836.00,-0.9798624,-8.882528,-3.6040554
1421106751856.00,-1.4518309,-8.314759,-3.9300773
1421106751872.00,-1.0220746,-7.8930864,-4.3556423
1421106751892.00,-1.0535092,-7.990683,-4.110452
1421106751911.00,-0.86355424,-8.213869,-3.960015
1421106751931.00,-0.8080197,-8.489296,-4.5741878
1421106751955.00,-0.9392967,-8.5083065,-4.865931
1421106751971.00,-1.1795471,-8.139624,-4.4397674
1421106751993.00,-1.5302678,-7.44417,-4.4252477
1421106752014.00,-1.5820601,-6.6861463,-5.3624487
1421106752031.00,-0.5289999,-7.711813,-5.8448954
1421106752052.00,-0.47421387,-8.06912,-5.4115467
1421106752073.00,-0.7777826,-8.329279,-4.999753
1421106752150.00,-1.1231145,-7.9553566,-5.002148
1421106752151.00,-0.98824495,-7.7538757,-5.4193306
1421106752153.00,-0.4430786,-8.077204,-5.4332514
1421106752154.00,-0.59381515,-8.384664,-5.434449
1421106752172.00,-0.7695497,-8.061786,-5.681136
1421106752192.00,-0.90816146,-7.7034307,-5.7853193
1421106752212.00,-0.852627,-7.6419086,-5.755831
1421106752233.00,-0.92283094,-7.9266167,-5.9270744
1421106752251.00,-1.1912228,-8.177495,-5.6895185
1421106752274.00,-1.1335927,-7.764055,-5.803282
1421106752292.00,-1.0078541,-7.0485425,-5.8136106
1421106752312.00,-1.2844789,-6.845415,-5.984256
1421106752331.00,-1.4810202,-6.7023125,-6.2433667
1421106752353.00,-1.5338603,-6.5671434,-6.2421694
1421106752372.00,-1.4302757,-6.550079,-6.084547
1421106752391.00,-1.2611275,-6.6853976,-6.3065357
1421106752413.00,-1.22625,-6.9046917,-6.5716343
1421106752467.00,-0.97626984,-7.121291,-6.503975
1421106752469.00,-1.002166,-6.7690735,-6.9081345
1421106752477.00,-1.113235,-6.5101123,-7.086264
1421106752492.00,-1.1283536,-5.8408537,-7.7833643
1421106752512.00,-0.70024383,-5.3898416,-7.8303666
1421106752532.00,-0.04924759,-4.762796,-7.961045
1421106752551.00,0.064216465,-4.113147,-8.106243
1421106752572.00,0.14145584,-3.9944434,-8.511749
1421106752592.00,-0.009729767,-3.646118,-8.581056
1421106752612.00,-0.102536775,-2.8515701,-8.229137
1421106752632.00,-0.27812165,-2.9153376,-8.372689
1421106752652.00,-0.26090744,-2.4872277,-9.0093155
1421106752672.00,0.030686188,-2.3026617,-9.597442
1421106752692.00,0.21046235,-2.5740473,-10.785372
1421106752713.00,-0.38724473,-2.6253905,-11.291769
1421106752732.00,-0.7884105,-2.133214,-11.630215
1421106752753.00,-0.44382706,-2.2430854,-11.883039
1421106752772.00,0.13412109,-2.1857548,-11.690839
1421106752825.00,0.59950334,-2.4207659,-11.221265
1421106752826.00,0.75652677,-2.2103035,-10.808125
1421106752832.00,0.8187973,-2.068848,-10.160571
1421106752852.00,0.75338334,-1.8300943,-9.589658
1421106752873.00,0.59531206,-1.6134948,-8.932824
1421106752892.00,0.4047583,-1.6016693,-8.565638
1421106752912.00,0.305365,-1.5361056,-8.484956
1421106752932.00,0.38529876,-1.6799566,-8.62701
1421106752952.00,0.6132747,-2.373165,-9.007369
1421106752972.00,0.7149133,-2.1797671,-9.455237
1421106752992.00,0.6676117,-2.286645,-9.30061
1421106753012.00,0.65234345,-2.5188122,-9.44431
1421106753033.00,0.7855664,-2.2791605,-9.676178
1421106753052.00,0.68557435,-2.4123833,-9.671538
1421106753119.00,0.34488282,-2.477498,-9.568702
1421106753119.00,0.39862105,-2.3569987,-9.558673
1421106753120.00,0.35102004,-2.459685,-9.432485
1421106753132.00,0.65369064,-2.1815634,-9.273815
1421106753153.00,0.58273816,-2.193389,-8.926088
1421106753172.00,0.64126647,-2.236499,-8.994645
1421106753192.00,0.77419007,-2.2121,-9.220526
1421106753212.00,0.64830184,-2.3754103,-9.375604
1421106753235.00,0.7432045,-2.373614,-9.379046
1421106753256.00,0.84364563,-2.4403753,-9.371712
1421106753272.00,0.8827144,-2.5271947,-9.242081
1421106753292.00,0.75682616,-2.3772066,-9.3309965
1421106753312.00,0.7469467,-2.3830445,-9.445508
1421106753332.00,0.6816824,-2.389032,-9.377699
1421106753352.00,0.75996965,-2.452949,-9.320218
1421106753376.00,0.61552,-2.310595,-9.296119
1421106753392.00,0.68916684,-2.3297553,-9.296867
1421106753413.00,0.64351183,-2.40924,-9.201964
1421106753519.00,0.5046007,-2.6300309,-9.09868
1421106753520.00,0.4978647,-2.402504,-9.0093155
1421106753521.00,0.57285875,-2.5086334,-9.173374
1421106753522.00,0.54337007,-2.5571325,-9.236393
1421106753523.00,0.5134323,-2.599195,-9.268725
1421106753537.00,0.44487488,-2.664609,-9.283994
1421106753553.00,0.60459274,-2.6017396,-9.226962
1421106753572.00,0.5242099,-2.6729915,-9.2063055
1421106753592.00,0.4739145,-2.647245,-9.352851
1421106753612.00,0.36838394,-2.5786877,-9.268875
1421106753633.00,0.3195854,-2.5729995,-9.334439
1421106753652.00,0.22109024,-2.3935227,-9.324859
1421106753673.00,0.30746064,-2.5512946,-9.316326
1421106753692.00,0.4869374,-2.4920177,-9.280551
1421106753712.00,0.53019744,-2.4858806,-9.214239
1421106753732.00,0.40894958,-2.4873774,-9.296867
1421106753754.00,0.3993695,-2.474654,-9.256002
1421106753803.00,0.22707778,-2.5014482,-9.332343
1421106753804.00,0.1737886,-2.5245004,-9.344768
1421106753812.00,0.18726058,-2.571353,-9.328301
1421106753834.00,0.030835876,-2.6524842,-9.279353
1421106753852.00,0.13442047,-2.7369087,-9.206904
1421106753872.00,-0.013022918,-2.762206,-9.17996
1421106753892.00,-0.13636643,-2.6592202,-9.22816
1421106753912.00,-0.10777588,-2.736759,-9.135653
1421106753932.00,-0.15462846,-2.630929,-9.211993
1421106753952.00,-0.07544312,-2.6909542,-9.331146
1421106753972.00,-0.02454895,-2.696792,-9.402996
1421106753996.00,0.10074051,-2.6656568,-9.28115
1421106754012.00,0.1594185,-2.6185048,-9.274115
1421106754033.00,0.2562671,-2.476001,-9.22292
1421106754066.00,0.27557695,-2.5727,-9.267827
1421106754072.00,0.355361,-2.5791366,-9.314381
1421106754143.00,0.17992584,-2.6006918,-9.365724
1421106754144.00,0.16480727,-2.562671,-9.407786
1421106754145.00,0.28979737,-2.416425,-9.226214
1421106754152.00,0.4155359,-2.4137306,-9.273815
1421106754173.00,0.41568556,-2.467469,-9.178014
1421106754193.00,0.3954776,-2.666555,-9.291328
1421106754212.00,0.4017645,-2.5848248,-9.193582
1421106754235.00,0.49337402,-2.4951613,-9.232202
1421106754253.00,0.35371444,-2.668501,-9.165141
1421106754272.00,0.3252736,-2.5363257,-9.212892
1421106754292.00,0.2243834,-2.5066874,-9.375304
1421106754313.00,0.27408004,-2.5450077,-9.430839
1421106754332.00,0.4155359,-2.4040008,-9.346713
1421106754353.00,0.31913635,-2.5526419,-9.251512
1421106754373.00,0.20432511,-2.5331821,-9.3558445
1421106754489.00,0.23291565,-2.615511,-9.207054
1421106754491.00,0.105680235,-2.646796,-9.299711
1421106754492.00,0.07708969,-2.6812243,-9.366622
1421106754493.00,0.123493195,-2.5595274,-9.377849
1421106754494.00,0.05583389,-2.605931,-9.254655
1421106754495.00,-0.1393602,-2.6244924,-9.174122
1421106754513.00,-0.20028351,-2.5149202,-9.112301
1421106754533.00,-0.18741028,-2.49097,-9.253307
1421106754552.00,-0.16540603,-2.5138724,-9.4032955
1421106754572.00,-0.09984238,-2.5141718,-9.304502
1421106754592.00,-0.13382171,-2.5086334,-9.357342
1421106754613.00,-0.09385483,-2.4239094,-9.257499
1421106754632.00,-0.08128098,-2.3923252,-9.216035
1421106754652.00,-0.10508148,-2.3700216,-9.248069
1421106754672.00,-0.09101074,-2.3697221,-9.200019
1421106754692.00,-0.18291962,-2.3378384,-9.320667
1421106754715.00,0.00703537,-2.4563918,-9.370664
1421106754834.00,-0.010777588,-2.445315,-9.225316
1421106754835.00,0.03397934,-2.475552,-9.231902
1421106754836.00,0.011376343,-2.4677682,-9.301806
1421106754837.00,0.08741821,-2.3839426,-9.298663
1421106754838.00,-0.0092807,-2.4354355,-9.425599
1421106754839.00,-0.067359924,-2.4522007,-9.354497
1421106754853.00,-0.06885681,-2.5533903,-9.249266
1421106754872.00,-0.046253815,-2.4069946,-9.26693
1421106754893.00,-0.045056306,-2.3378384,-9.302705
1421106754916.00,-0.16839981,-2.4248075,-9.3188715
1421106754933.00,-0.16346008,-2.4605832,-9.331594
1421106754952.00,-0.19459534,-2.4631279,-9.335037
1421106754976.00,-0.19040406,-2.4948618,-9.272917
1421106754996.00,-0.21270767,-2.4951613,-9.332792
1421106755013.00,-0.26779312,-2.4472609,-9.24747
1421106755034.00,-0.21031265,-2.4254065,-9.284443
1421106755141.00,-0.105829924,-2.3237677,-9.303154
1421106755141.00,-0.053289186,-2.4927664,-9.265432
1421106755142.00,0.030985566,-2.421215,-9.344468
1421106755143.00,-0.02933899,-2.5099804,-9.429341
1421106755144.00,0.11061996,-2.4288492,-9.310788
1421106755154.00,0.10732681,-2.3945704,-9.398954
1421106755174.00,-0.0490979,-2.3617887,-9.415271
1421106755192.00,-0.07155121,-2.3872356,-9.354048
1421106755213.00,-0.119900666,-2.432292,-9.220226
1421106755233.00,-0.10897339,-2.4450157,-9.26184
1421106755253.00,0.02694397,-2.3619382,-9.363479
1421106755273.00,-0.20642075,-2.5459058,-9.335337
1421106755293.00,-0.21974304,-2.4463627,-9.291927
1421106755312.00,-0.18067428,-2.5821304,-9.30974
1421106755332.00,-0.14504836,-2.4954607,-9.311088
1421106755356.00,-0.105979614,-2.4691155,-9.39641
1421106755484.00,-0.017812958,-2.5358765,-9.301956
1421106755485.00,0.002544708,-2.400558,-9.298364
1421106755488.00,-0.237556,-2.4887247,-9.219627
1421106755490.00,-0.02350113,-2.4906707,-9.296568
1421106755491.00,-0.09774674,-2.5192611,-9.355695
1421106755492.00,0.016914826,-2.4218137,-9.304202
1421106755493.00,-0.11121872,-2.4098387,-9.355695
1421106755514.00,-0.06661148,-2.4767497,-9.349708
1421106755533.00,-0.104183346,-2.4632776,-9.397009
1421106755552.00,-0.14699432,-2.3980134,-9.3116865
1421106755573.00,-0.22378464,-2.4016058,-9.347611
1421106755592.00,-0.22887406,-2.3632855,-9.374556
1421106755612.00,-0.15088624,-2.4427702,-9.351354
1421106755632.00,-0.09205856,-2.429897,-9.273815
1421106755652.00,-0.13262421,-2.481839,-9.425899
1421106755672.00,-0.17318985,-2.511178,-9.459878
1421106755693.00,-0.17468673,-2.4393275,-9.326955
1421106755861.00,-0.24099883,-2.4426205,-9.312584
1421106755861.00,-0.17887802,-2.4227118,-9.349857
1421106755863.00,-0.12499008,-2.3213727,-9.336385
1421106755864.00,-0.21330643,-2.3930736,-9.323063
1421106755865.00,-0.20462447,-2.3343956,-9.275461
1421106755866.00,-0.24010071,-2.3686743,-9.330248
1421106755867.00,-0.16375946,-2.414479,-9.5053835
1421106755869.00,-0.19489472,-2.362986,-9.467213
1421106755878.00,0.049996033,-2.4060965,-9.37725
1421106755893.00,-0.17678238,-2.4403753,-9.388476
1421106755913.00,-0.15208374,-2.3637345,-9.29028
1421106755932.00,-0.1871109,-2.4373815,-9.283694
1421106755952.00,-0.028889922,-2.5119264,-9.420361
1421106755974.00,-0.1911525,-2.4325914,-9.315578
1421106755993.00,-0.23575974,-2.37556,-9.423654
1421106756013.00,-0.2228865,-2.3468199,-9.289383
1421106756105.00,-0.26899064,-2.4189696,-9.306148
1421106756106.00,-0.21091141,-2.2737718,-9.292975
1421106756114.00,-0.16151413,-2.338437,-9.3872795
1421106756115.00,-0.11615845,-2.2841003,-9.2697735
1421106756116.00,-0.22543122,-2.3787034,-9.36273
1421106756138.00,-0.12963043,-2.5388703,-9.439072
1421106756152.00,-0.23575974,-2.403402,-9.386531
1421106756173.00,-0.14235397,-2.3517594,-9.284892
1421106756193.00,-0.24474105,-2.3590941,-9.333691
1421106756213.00,-0.1633104,-2.439477,-9.489816
1421106756232.00,-0.13397141,-2.3167324,-9.407038
1421106756253.00,-0.23785537,-2.4084916,-9.373058
1421106756273.00,-0.21420456,-2.2441332,-9.326955
1421106756292.00,-0.28770173,-2.4763005,-9.375005
1421106756312.00,-0.16750167,-2.5333319,-9.346713
1421106756332.00,-0.26599684,-2.5066874,-9.332493
1421106756355.00,-0.2785707,-2.2854474,-9.385183
1421106756445.00,-0.1818718,-2.247127,-9.38683
1421106756446.00,-0.13681549,-2.4031026,-9.394165
1421106756447.00,-0.102387086,-2.389032,-9.370065
1421106756448.00,-0.16286133,-2.3737638,-9.286538
1421106756453.00,-0.04805008,-2.3249652,-9.330697
1421106756473.00,-0.05358856,-2.3168821,-9.310938
1421106756493.00,-0.18366806,-2.402504,-9.318273
1421106756512.00,-0.15822098,-2.3110442,-9.384734
1421106756533.00,-0.21600083,-2.5252488,-9.339528
1421106756553.00,-0.1619632,-2.489473,-9.343869
1421106756572.00,-0.1633104,-2.382745,-9.400751
1421106756592.00,-0.2972818,-2.4571404,-9.27621
1421106756616.00,-0.34697846,-2.4574397,-9.306896
1421106756633.00,-0.17034577,-2.4851322,-9.401051
1421106756653.00,-0.19699036,-2.3930736,-9.222023
1421106756719.00,-0.17842895,-2.4194188,-9.374855
1421106756720.00,-0.3161426,-2.300566,-9.245673
1421106756721.00,-0.20642075,-2.277963,-9.227411
1421106756733.00,-0.101189576,-2.4019053,-9.300909
1421106756752.00,-0.2535727,-2.4306455,-9.335636
1421106756773.00,-0.1830693,-2.4090903,-9.383836
1421106756798.00,-0.1818718,-2.2984703,-9.4494
1421106756813.00,-0.07933502,-2.2602997,-9.394614
1421106756833.00,-0.31255004,-2.3420298,-9.269624
1421106756855.00,-0.18636246,-2.331252,-9.426647
1421106756873.00,-0.23291565,-2.4346871,-9.243728
1421106756893.00,-0.23665787,-2.4243586,-9.465117
1421106756916.00,-0.21195923,-2.4408243,-9.408834
1421106756932.00,-0.24623795,-2.4527993,-9.335486
1421106756954.00,-0.24429199,-2.4800427,-9.2813
1421106756973.00,-0.15208374,-2.4081922,-9.219328
1421106757026.00,-0.065863036,-2.3337967,-9.31468
1421106757027.00,-0.09310638,-2.3546035,-9.345217
1421106757032.00,-0.09520203,-2.2739213,-9.380992
1421106757053.00,-0.11870316,-2.389481,-9.440718
1421106757074.00,-0.07379654,-2.2823038,-9.321116
1421106757093.00,-0.12648697,-2.4051983,-9.236243
1421106757113.00,-0.20118164,-2.3641837,-9.306148
1421106757133.00,-0.13397141,-2.4346871,-9.339678
1421106757153.00,-0.18800904,-2.4541466,-9.352402
1421106757173.00,-0.14789246,-2.465972,-9.336984
1421106757201.00,-0.16360977,-2.344874,-9.380543
1421106757213.00,-0.11136841,-2.4258554,-9.328002
1421106757233.00,-0.19414628,-2.4530988,-9.331594
1421106757253.00,-0.13022919,-2.5027955,-9.319171
1421106757275.00,-0.13621673,-2.5423133,-9.43503
1421106757295.00,0.003293152,-2.389032,-9.373657
1421106757368.00,-0.081580356,-2.367926,-9.380842
1421106757369.00,-0.07574249,-2.3460712,-9.339378
1421106757370.00,-0.021255799,-2.4227118,-9.315279
1421106757372.00,-0.14744338,-2.3993604,-9.389524
1421106757393.00,-0.21180955,-2.3980134,-9.382789
1421106757412.00,-0.03173401,-2.4068449,-9.214239
1421106757433.00,-0.1552272,-2.388583,-9.258697
1421106757452.00,-0.22737716,-2.2317092,-9.332942
1421106757475.00,-0.29638368,-2.2983205,-9.417965
1421106757496.00,-0.14280304,-2.3372397,-9.41078
1421106757524.00,-0.15447876,-2.5048912,-9.302855
1421106757533.00,-0.21914428,-2.4574397,-9.354347
1421106757553.00,-0.17558487,-2.376907,-9.368568
1421106757575.00,-0.10208771,-2.3433769,-9.323362
1421106757593.00,-0.22543122,-2.4625292,-9.408236
1421106757613.00,-0.20477417,-2.358196,-9.3453665
1421106757694.00,-0.17992584,-2.3676264,-9.370514
1421106757695.00,-0.23860382,-2.4776478,-9.3083935
1421106757697.00,-0.085023195,-2.4541466,-9.315878
1421106757698.00,-0.09909394,-2.4767497,-9.356144
1421106757714.00,-0.23141876,-2.4043002,-9.337433
1421106757733.00,-0.10897339,-2.3466702,-9.324709
1421106757754.00,-0.16091537,-2.3611898,-9.292826
1421106757773.00,-0.13486953,-2.3694227,-9.349708
1421106757795.00,-0.21076173,-2.4278014,-9.336984
1421106757819.00,-0.04924759,-2.4619303,-9.404344
1421106757836.00,-0.13037887,-2.346221,-9.384734
1421106757857.00,-0.09340576,-2.3578968,-9.361832
1421106757874.00,-0.17723145,-2.3968158,-9.373358
1421106757893.00,-0.031135254,-2.4234605,-9.402846
1421106757913.00,-0.26045838,-2.3710694,-9.307795
1421106757933.00,-0.25776398,-2.4418721,-9.41093
1421106757953.00,-0.23516098,-2.4450157,-9.455836
1421106758024.00,-0.15881974,-2.319277,-9.308094
1421106758025.00,-0.11690689,-2.3840923,-9.436826
1421106758025.00,-0.22079086,-2.414479,-9.332343
1421106758033.00,-0.11481125,-2.427502,-9.260343
1421106758053.00,-0.123792574,-2.3993604,-9.210946
1421106758073.00,-0.12828323,-2.475103,-9.39147
1421106758094.00,-0.17723145,-2.399211,-9.404493
1421106758113.00,-0.101189576,-2.4484584,-9.388177
1421106758135.00,-0.14504836,-2.3059547,-9.267379
1421106758155.00,-0.18785934,-2.2909858,-9.2504635
1421106758177.00,-0.19743942,-2.296225,-9.186397
1421106758205.00,-0.21779709,-2.3421793,-9.315129
1421106758216.00,-0.17812958,-2.3087988,-9.334589
1421106758240.00,-0.058228914,-2.3656805,-9.237591
1421106758253.00,-0.25267455,-2.4406745,-9.34327
1421106758274.00,-0.16974701,-2.4599845,-9.321566
1421106758293.00,-0.19848724,-2.3867867,-9.234447
1421106758313.00,-0.18067428,-2.4580386,-9.304052
1421106758333.00,-0.24668701,-2.3843915,-9.303453
1421106758397.00,-0.17214203,-2.3508613,-9.423654
1421106758398.00,-0.22123992,-2.4786956,-9.27591
1421106758399.00,-0.24803421,-2.440974,-9.311387
1421106758420.00,-0.35341507,-2.4248075,-9.301956
1421106758433.00,-0.21180955,-2.3330483,-9.360485
1421106758454.00,-0.16690293,-2.3325994,-9.384734
1421106758473.00,-0.07379654,-2.3682253,-9.4226055
1421106758493.00,-0.08008347,-2.4137306,-9.332493
1421106758513.00,-0.14519806,-2.4499552,-9.225017
1421106758533.00,-0.059276734,-2.3909779,-9.1941805
1421106758553.00,-0.17184265,-2.4968078,-9.3536
1421106758573.00,-0.15552658,-2.387086,-9.303004
1421106758593.00,-0.23665787,-2.4432192,-9.337882
1421106758661.00,-0.21839584,-2.3848407,-9.347611
1421106758662.00,-0.17274079,-2.3854394,-9.314081
1421106758662.00,-0.041613463,-2.3864872,-9.219028
1421106758675.00,-0.12992981,-2.4673193,-9.173524
1421106758693.00,-0.09520203,-2.3796015,-9.283395
1421106758713.00,-0.15417938,-2.5062382,-9.3292
1421106758734.00,-0.020657044,-2.3544538,-9.472602
1421106758756.00,0.025896149,-2.259102,-9.357491
1421106758773.00,0.11765534,-2.3956182,-9.300011
1421106758793.00,0.044906616,-2.4456143,-9.319171
1421106758813.00,-0.11795471,-2.4388783,-9.360485
1421106758833.00,-0.086220704,-2.4733067,-9.292676
1421106758853.00,-0.034129027,-2.4767497,-9.34327
1421106758873.00,0.036973115,-2.3819966,-9.224567
1421106758894.00,-0.19339782,-2.3704705,-9.204808
1421106758921.00,-0.085172884,-2.2363496,-9.2907295
1421106758934.00,-0.105979614,-2.4267535,-9.342821
1421106759022.00,-0.101488955,-2.408641,-9.370065
1421106759023.00,-0.14175522,-2.44292,-9.342522
1421106759024.00,0.044607237,-2.3704705,-9.202713
1421106759025.00,-0.013322297,-2.3276596,-9.206605
1421106759116.00,-0.08771759,-2.4225624,-9.3188715
1421106759117.00,-0.05733078,-2.5233028,-9.357342
1421106759118.00,0.034278717,-2.4343877,-9.267677
1421106759118.00,-0.1061293,-2.361639,-9.372609
1421106759119.00,-0.002095642,-2.408641,-9.380543
1421106759135.00,0.05029541,-2.2664368,-9.315429
1421106759178.00,0.13262421,-2.3593936,-9.302705
1421106759179.00,-0.088016964,-2.479444,-9.280401
1421106759197.00,-0.20926483,-2.311643,-9.228909
1421106759214.00,-0.1540297,-2.3804998,-9.342522
1421106759234.00,-0.17004639,-2.3050566,-9.45853
1421106759254.00,0.035775606,-2.400109,-9.519304
1421106759274.00,0.11076965,-2.4035518,-9.431737
1421106759345.00,0.15507752,-2.24578,-9.169482
1421106759346.00,0.17543519,-2.2347028,-9.286838
1421106759347.00,0.19459534,-2.2176385,-9.322763
1421106759353.00,0.0690065,-2.2341042,-9.243877
1421106759373.00,0.18142273,-2.2703288,-9.351354
1421106759394.00,0.20297791,-2.413581,-9.443861
1421106759413.00,0.25926086,-2.468816,-9.430839
1421106759435.00,0.1407074,-2.4589367,-9.3293495
1421106759456.00,0.085472256,-2.3465204,-9.265882
1421106759480.00,0.13681549,-2.395319,-9.276958
1421106759494.00,0.15896942,-2.2993684,-9.4402685
1421106759514.00,0.13980927,-2.2930815,-9.393566
1421106759539.00,0.1432521,-2.3013144,-9.320817
1421106759563.00,0.012573852,-2.2884412,-9.273965
1421106759574.00,-0.014669495,-2.3742127,-9.24717
1421106759646.00,-0.017962646,-2.2623954,-9.301806
1421106759648.00,-0.059276734,-2.3137386,-9.440418
1421106759649.00,-0.03861969,-2.249073,-9.392967
1421106759653.00,-0.048349455,-2.2361999,-9.400901
1421106759673.00,-0.04086502,-2.1906943,-9.373358
1421106759694.00,-0.040565643,-2.339036,-9.350755
1421106759713.00,-0.1088237,-2.3179297,-9.342971
1421106759734.00,-0.12169693,-2.3320005,-9.260193
1421106759754.00,-0.18067428,-2.37077,-9.286838
1421106759773.00,-0.013771363,-2.4527993,-9.404493
1421106759795.00,0.029488677,-2.4334896,-9.332942
1421106759814.00,0.036673736,-2.3956182,-9.402397
1421106759833.00,0.058977354,-2.482737,-9.206455
1421106759853.00,0.17318985,-2.367926,-9.242829
1421106759873.00,0.20387603,-2.462679,-9.3277025
1421106759894.00,0.07379654,-2.3391857,-9.305698
1421106759913.00,0.05643265,-2.2299128,-9.320068
1421106759934.00,0.010178833,-2.3873854,-9.360186
1421106759989.00,0.031135254,-2.3451731,-9.292826
1421106759990.00,0.067359924,-2.2941294,-9.399104
1421106759994.00,-0.029488677,-2.3013144,-9.369915
1421106760014.00,-0.03637436,-2.1628523,-9.413176
1421106760034.00,-0.07439529,-2.1719832,-9.418564
1421106760053.00,0.11301498,-2.1122575,-9.371712
1421106760073.00,-0.04670288,-2.2228775,-9.4612255
1421106760097.00,-0.10178833,-2.203418,-9.361532
1421106760116.00,-0.26599684,-2.3089485,-9.280102
1421106760133.00,-0.27078688,-2.2448816,-9.438024
1421106760154.00,-0.19758911,-2.397714,-9.4104805
1421106760173.00,-0.16869919,-2.3948698,-9.422755
1421106760194.00,-0.07813751,-2.3320005,-9.337283
1421106760217.00,-0.14774276,-2.3677762,-9.273665
1421106760235.00,-0.07005432,-2.2493725,-9.359736
1421106760253.00,-0.03622467,-2.3189776,-9.4242525
1421106760322.00,-0.18561402,-2.3695724,-9.344618
1421106760322.00,-0.056732025,-2.3296056,-9.289982
1421106760323.00,-0.030985566,-2.2480252,-9.388327
1421106760333.00,0.18396744,-2.1863534,-9.465716
1421106760354.00,0.17528549,-2.2439835,-9.451196
1421106760373.00,0.22992188,-2.290836,-9.328002
1421106760393.00,0.11541,-2.3561006,-9.337283
1421106760414.00,0.06885681,-2.3043082,-9.339977
1421106760433.00,0.042212218,-2.1790187,-9.356743
1421106760453.00,-0.08307724,-2.170786,-9.401649
1421106760475.00,0.0504451,-2.4128325,-9.336984
1421106760493.00,0.13367203,-2.3269112,-9.2537565
1421106760514.00,0.15193406,-2.3141875,-9.323362
1421106760536.00,0.07993378,-2.2046156,-9.331894
1421106760555.00,0.07185058,-2.1930895,-9.350605
1421106760575.00,0.03861969,-2.1148024,-9.369316
1421106760595.00,-0.010627899,-2.2791605,-9.428742
1421106760615.00,0.04086502,-2.2535636,-9.33384
1421106760635.00,0.100141756,-2.2519171,-9.38698
1421106760657.00,0.13397141,-2.280807,-9.394764
1421106760673.00,0.11765534,-2.3068528,-9.323662
1421106760745.00,0.107925564,-2.29383,-9.279653
1421106760746.00,0.059426423,-2.2689817,-9.520053
1421106760747.00,0.029788055,-2.2415886,-9.354946
1421106760753.00,0.07903565,-2.2905369,-9.320518
1421106760774.00,-0.09265732,-2.084116,-9.350306
1421106760794.00,-0.033530273,-2.1496797,-9.383088
1421106760813.00,-0.004790039,-2.1540208,-9.498498
1421106760833.00,0.026195526,-2.285148,-9.350904
1421106760854.00,-0.061072998,-2.3098466,-9.368867
1421106760873.00,-0.057779845,-2.3008654,-9.22816
1421106760896.00,-0.09939331,-2.2424867,-9.305249
1421106760996.00,0.08652008,-2.254911,-9.487421
1421106760997.00,0.06795868,-2.298171,-9.373957
1421106760998.00,0.1580713,-2.227368,-9.491163
1421106760999.00,0.13367203,-2.2387445,-9.249116
1421106760999.00,0.18950592,-2.1116588,-9.300909
1421106761016.00,0.11376343,-2.1742287,-9.3453665
1421106761033.00,-0.08083191,-2.268832,-9.3083935
1421106761053.00,-0.1181044,-2.2980213,-9.440718
1421106761078.00,-0.09879456,-2.364034,-9.344318
1421106761094.00,-8.98E-04,-2.2812562,-9.352252
1421106761114.00,-0.035476226,-2.2815554,-9.325008
1421106761134.00,0.09355545,-2.2061124,-9.345816
1421106761154.00,0.017064514,-2.1838088,-9.45449
1421106761177.00,0.047151946,-2.1544697,-9.432335
1421106761196.00,-0.05613327,-2.0692968,-9.338631
1421106761214.00,0.058079224,-2.0998335,-9.342671
1421106761234.00,0.0902623,-2.081272,-9.386231
1421106761301.00,-0.052989807,-2.1460872,-9.323362
1421106761302.00,-0.04565506,-2.1335135,-9.251062
1421106761303.00,0.024099885,-2.2921834,-9.311836
1421106761314.00,-0.065413974,-2.2188358,-9.393866
1421106761334.00,-0.069305874,-2.2338047,-9.353748
1421106761353.00,-0.0742456,-2.207759,-9.263487
1421106761374.00,-0.023201752,-2.304458,-9.372759
1421106761394.00,-0.05957611,-2.2733226,-9.292227
1421106761414.00,-0.00464035,-2.3147864,-9.337882
1421106761434.00,-0.038320314,-2.2570066,-9.457932
1421106761454.00,0.08023316,-2.3828948,-9.434581
1421106761473.00,0.08652008,-2.2932312,-9.252708
1421106761494.00,-0.005688171,-2.163002,-9.261091
1421106761513.00,0.046403505,-2.1405487,-9.409733
1421106761534.00,0.026345216,-2.2665865,-9.437125
1421106761556.00,0.061222687,-2.2391937,-9.423953
1421106761638.00,-0.004790039,-2.224075,-9.340876
1421106761639.00,0.21375549,-2.3285577,-9.291328
1421106761640.00,0.13636643,-2.296674,-9.425599
1421106761644.00,0.2163002,-2.2354515,-9.471704
1421106761663.00,0.21674927,-2.3093977,-9.455237
1421106761677.00,0.28440857,-2.331252,-9.492062
1421106761693.00,0.12528946,-2.270778,-9.351204
1421106761714.00,0.14579682,-2.261647,-9.367371
1421106761746.00,0.09774674,-2.3638842,-9.393267
1421106761756.00,0.16375946,-2.3468199,-9.358389
1421106761774.00,0.1607657,-2.2731729,-9.297017
1421106761794.00,0.09999207,-2.2026696,-9.342223
1421106761815.00,0.31015503,-2.217788,-9.296568
1421106761833.00,0.13292359,-2.2204826,-9.3116865
1421106761856.00,0.11496094,-2.1821623,-9.423953
1421106761875.00,0.16615447,-2.140998,-9.359287
1421106761945.00,0.21091141,-2.2091062,-9.350455
1421106761946.00,0.32572266,-2.2960753,-9.42515
1421106761946.00,0.3650908,-2.1829107,-9.337283
1421106761954.00,0.28620484,-2.1159997,-9.315578
1421106761974.00,0.2776726,-2.229314,-9.328002
1421106761994.00,0.20701951,-2.3376887,-9.397159
1421106762014.00,0.37377274,-2.450105,-9.365724
1421106762035.00,0.3851491,-2.3935227,-9.355545
1421106762068.00,0.24803421,-2.3382876,-9.279054
1421106762074.00,0.3544629,-2.1996758,-9.347162
1421106762093.00,0.35326537,-2.3055058,-9.411079
1421106762114.00,0.513582,-2.3662794,-9.301059
1421106762135.00,0.5366341,-2.2288651,-9.306297
1421106762153.00,0.45699966,-2.22647,-9.259295
1421106762174.00,0.3677852,-2.2135968,-9.28624
1421106762194.00,0.35506165,-2.214944,-9.26693
1421106762269.00,0.29114455,-2.2900877,-9.395661
1421106762270.00,0.30761033,-2.3358924,-9.368717
1421106762272.00,0.40954834,-2.4718099,-9.429042
1421106762273.00,0.36045045,-2.3902295,-9.396111
1421106762294.00,0.3293152,-2.4881258,-9.366173
1421106762314.00,0.43843827,-2.373165,-9.148226
1421106762334.00,0.45310774,-2.1850061,-9.212892
1421106762356.00,0.6095325,-2.2233267,-9.31468
1421106762381.00,0.6315367,-2.3049068,-9.388776
1421106762394.00,0.67704207,-2.2935305,-9.374406
1421106762415.00,0.5511539,-2.2122495,-9.340127
1421106762434.00,0.5911208,-2.3352938,-9.260642
1421106762454.00,0.6156697,-2.3227198,-9.3116865
1421106762474.00,0.6439609,-2.3200254,-9.332792
1421106762494.00,0.47406417,-2.1204903,-9.43488
1421106762514.00,0.44697052,-2.2516177,-9.321566
1421106762590.00,0.36823425,-2.2773643,-9.22337
1421106762592.00,0.44712022,-2.1758752,-9.370514
1421106762592.00,0.1936972,-2.1483326,-9.368119
1421106762593.00,0.10822494,-2.27467,-9.337583
1421106762614.00,0.22064118,-2.2972727,-9.412577
1421106762634.00,0.16390915,-2.198628,-9.283545
1421106762654.00,0.23426285,-2.0993843,-9.389375
1421106762674.00,0.30386811,-2.2781126,-9.377998
1421106762694.00,0.2868036,-2.3852897,-9.355096
1421106762714.00,0.2136058,-2.4117846,-9.436676
1421106762740.00,0.31913635,-2.3296056,-9.395661
1421106762760.00,0.513582,-2.3315516,-9.436676
1421106762775.00,0.5745053,-2.2290146,-9.211544
1421106762794.00,0.6493497,-2.1323159,-9.205707
1421106762814.00,0.74230635,-2.1689897,-9.271271
1421106762834.00,0.701591,-2.2198837,-9.149274
1421106762898.00,0.9023236,-2.4486082,-9.112301
1421106762899.00,0.9017249,-2.3821464,-9.208401
1421106762900.00,0.710722,-2.3143373,-9.068892
1421106762919.00,0.65997756,-2.3995101,-8.887768
1421106762933.00,0.69919604,-2.2207818,-9.051377
1421106762954.00,0.57405627,-1.9618204,-9.367071
1421106762974.00,0.5354366,-2.0757334,-9.573492
1421106762994.00,0.35895357,-1.9387683,-9.772877
1421106763014.00,0.32886612,-2.081272,-9.725276
1421106763034.00,0.6215076,-2.210154,-9.618099
1421106763053.00,0.8295749,-2.048041,-9.274414
1421106763075.00,0.79320055,-2.0772305,-9.274115
1421106763098.00,0.8428972,-2.08217,-9.341175
1421106763114.00,0.8623567,-2.104324,-9.379346
1421106763134.00,0.97731763,-2.3114932,-9.41063
1421106763154.00,1.0008187,-2.3007157,-9.263786
1421106763224.00,1.1216176,-2.2469773,-9.270073
1421106763224.00,1.2228072,-2.2592518,-9.216185
1421106763225.00,1.1865824,-2.2176385,-9.254505
1421106763235.00,1.194965,-2.3087988,-9.134604
1421106763254.00,1.2301419,-2.2359004,-9.325458
1421106763275.00,1.0868897,-2.2085073,-9.296119
1421106763294.00,0.98031145,-2.1185446,-9.418414
1421106763317.00,0.9868977,-2.230811,-9.3293495
1421106763338.00,0.9741742,-2.0965402,-9.3437195
1421106763356.00,1.1064991,-2.1342618,-9.271569
1421106763375.00,1.2424164,-2.225123,-9.385333
1421106763395.00,1.3251942,-2.12064,-9.3663225
1421106763414.00,1.348396,-1.9931053,-9.327553
1421106763434.00,1.2798386,-2.0833676,-9.3771
1421106763454.00,1.2558883,-2.1339624,-9.303304
1421106763477.00,1.1505075,-2.2294638,-9.27606
1421106763549.00,1.1508069,-2.2158422,-9.417516
1421106763550.00,1.0596465,-2.2388942,-9.291778
1421106763552.00,0.79005706,-2.1164489,-9.178613
1421106763554.00,0.77523786,-2.0859122,-9.279653
1421106763574.00,0.812211,-2.2056632,-9.205108
1421106763594.00,0.7098239,-2.1493804,-9.395811
1421106763616.00,0.6882687,-2.1348605,-9.41078
1421106763634.00,0.6276448,-1.9486477,-9.312584
1421106763654.00,0.69725007,-1.986968,-9.15601
1421106763674.00,0.84873503,-2.0113673,-9.204209
1421106763696.00,0.79290116,-2.1718338,-9.307944
1421106763714.00,0.8491841,-2.149979,-9.369915
1421106763734.00,0.8378078,-2.058669,-9.394015
1421106763754.00,0.8731343,-1.9055374,-9.296418
1421106763774.00,0.88001996,-2.0489392,-9.329499
1421106763799.00,0.99438214,-2.0434008,-9.363179
1421106763821.00,0.9798624,-2.0190015,-9.325308
1421106763881.00,0.9008267,-1.9549347,-9.307795
1421106763882.00,0.86669767,-2.0944445,-9.381741
1421106763883.00,0.85816544,-2.0739372,-9.219178
1421106763894.00,0.7598199,-1.940864,-8.929681
1421106763917.00,0.56462586,-1.9911593,-8.8669615
1421106763934.00,0.73407346,-2.0431013,-9.330248
1421106763960.00,0.7595206,-2.1104612,-9.707463
1421106763974.00,0.7890093,-2.011966,-9.875264
1421106763994.00,0.7143146,-1.9752923,-9.668993
1421106764014.00,0.77838135,-2.0938458,-9.46377
1421106764034.00,0.74095917,-1.9670595,-9.409733
1421106764054.00,0.531844,-1.9694545,-9.351953
1421106764074.00,0.5581892,-2.016756,-9.339378
1421106764094.00,0.51043856,-2.0604653,-9.355695
1421106764115.00,0.5261558,-2.13037,-9.3613825
1421106764134.00,0.6725514,-2.189497,-9.355545
1421106764215.00,0.6451584,-2.1915925,-9.374406
1421106764216.00,0.61372375,-2.1640499,-9.284293
1421106764217.00,0.4763095,-2.1044738,-9.297615
1421106764218.00,0.52001864,-2.089954,-9.282048
1421106764237.00,0.79828995,-2.1266277,-9.413624
1421106764254.00,0.63557833,-2.1248314,-9.465117
1421106764274.00,0.6572832,-2.171684,-9.391022
1421106764294.00,0.6810837,-2.0652552,-9.321566
1421106764315.00,0.60728717,-2.0097208,-9.258697
1421106764334.00,0.60608965,-2.1921914,-9.25241
1421106764354.00,0.5788463,-2.1342618,-9.332044
1421106764375.00,0.5834866,-2.0910017,-9.402846
1421106764395.00,0.710722,-2.0957918,-9.414971
1421106764414.00,0.66791105,-1.9829265,-9.311088
1421106764434.00,0.75338334,-2.0541782,-9.395961
1421106764455.00,0.66252226,-1.9660116,-9.395661
1421106764480.00,0.7047345,-2.025438,-9.40135
1421106764499.00,0.7138655,-2.0577707,-9.373807
1421106764588.00,0.72419405,-2.027384,-9.363179
1421106764589.00,0.73572004,-2.0962408,-9.447603
1421106764589.00,0.6774911,-2.098037,-9.355395
1421106764591.00,0.778531,-2.0764818,-9.407337
1421106764595.00,0.58842635,-1.9705024,-9.3083935
1421106764615.00,0.76505905,-2.1037252,-9.328601
1421106764634.00,0.7195537,-2.0157082,-9.388926
1421106764655.00,0.6183641,-2.006727,-9.439819
1421106764675.00,0.65264285,-1.9016455,-9.382489
1421106764694.00,0.54636383,-1.9440074,-9.433233
1421106764715.00,0.6439609,-2.066303,-9.385333
1421106764737.00,0.58812696,-2.112557,-9.520053
1421106764760.00,0.8014334,-2.1369562,-9.432036
1421106764776.00,0.6712042,-2.140998,-9.382639
1421106764794.00,0.7586224,-2.1698878,-9.270522
1421106764863.00,0.74604857,-2.2261705,-9.216185
1421106764864.00,0.6806346,-2.1665945,-9.350156
1421106764865.00,0.65399003,-2.0438497,-9.328751
1421106764874.00,0.68961596,-2.0239413,-9.442664
1421106764895.00,0.81280977,-2.1083655,-9.431737
1421106764915.00,0.69859725,-2.0079246,-9.177715
1421106764935.00,0.5962102,-2.0929477,-9.315728
1421106764954.00,0.717458,-2.0100203,-9.354497
1421106764976.00,0.68916684,-2.0648062,-9.285042
1421106764998.00,0.5701643,-2.0140617,-9.26663
1421106765014.00,0.6197113,-2.1210892,-9.36258
1421106765035.00,0.7155121,-2.0425026,-9.286838
1421106765054.00,0.73182815,-1.988914,-9.390423
1421106765074.00,0.6851253,-2.0782783,-9.316626
1421106765094.00,0.7725435,-2.1031265,-9.284443
1421106765114.00,0.62285477,-2.0694466,-9.20855
1421106765168.00,0.7354207,-2.0862117,-9.239686
1421106765169.00,0.7258406,-2.0342698,-9.351204
1421106765178.00,0.6686595,-1.9965482,-9.359437
1421106765194.00,0.69919604,-2.0411553,-9.371712
1421106765215.00,0.68123335,-1.9871178,-9.3083935
1421106765235.00,0.7978409,-1.9920574,-9.226513
1421106765254.00,0.7813751,-2.1052222,-9.299262
1421106765276.00,0.81804883,-2.0285816,-9.389974
1421106765295.00,0.8265811,-2.0410056,-9.429192
1421106765314.00,0.76820254,-2.082769,-9.24747
1421106765336.00,0.7668553,-2.0739372,-9.383686
1421106765355.00,0.8490344,-2.0104692,-9.31947
1421106765374.00,0.87627774,-2.0764818,-9.390872
1421106765395.00,0.7220984,-2.1032763,-9.253158
1421106765415.00,0.8402028,-2.1296215,-9.379496
1421106765437.00,0.67868865,-2.0416045,-9.394764
1421106765456.00,0.723745,-2.0140617,-9.321566
1421106765534.00,0.7469467,-2.1604574,-9.417068
1421106765534.00,0.7548802,-2.0803738,-9.333691
1421106765536.00,0.7288344,-2.1171973,-9.388027
1421106765537.00,0.7964937,-2.1387525,-9.4491005
1421106765558.00,0.78466827,-2.0401075,-9.446257
1421106765574.00,0.6568341,-2.020648,-9.378897
1421106765596.00,0.76895094,-2.191443,-9.293425
1421106765615.00,0.7595206,-2.1299207,-9.303304
1421106765637.00,0.76505905,-2.1237836,-9.345666
1421106765654.00,0.726589,-2.049538,-9.392518
1421106765675.00,0.6286926,-2.0348685,-9.413475
1421106765695.00,0.7497908,-2.007625,-9.309441
1421106765716.00,0.73332506,-1.9947519,-9.318422
1421106765734.00,0.8161029,-2.016756,-9.3437195
1421106765755.00,0.7529343,-1.9820284,-9.405991
1421106765774.00,0.69725007,-2.0329225,-9.367071
1421106765797.00,0.88600755,-2.080224,-9.286987
1421106765882.00,0.8421487,-2.150428,-9.318722
1421106765883.00,0.8855585,-2.0395088,-9.311387
1421106765884.00,0.7991881,-2.1553679,-9.337283
1421106765885.00,0.6530919,-2.0755837,-9.43024
1421106765898.00,0.87208647,-2.0758832,-9.399553
1421106765916.00,0.6078859,-2.0070264,-9.434281
1421106765934.00,0.6994954,-2.0466938,-9.281449
1421106765954.00,0.73976165,-2.0715423,-9.347462
1421106765975.00,0.7427554,-2.0863614,-9.3470125
1421106765994.00,0.83152086,-2.0779788,-9.347611
1421106766015.00,0.77583665,-1.9531385,-9.282348
1421106766040.00,0.791554,-2.0963905,-9.290131
1421106766055.00,0.7312294,-2.157164,-9.341774
1421106766075.00,0.7478449,-2.1456382,-9.308244
1421106766098.00,0.72389466,-2.0387604,-9.351054
1421106766115.00,0.7023395,-2.1100123,-9.350904
1421106766135.00,0.55399793,-2.0411553,-9.347162
1421106766200.00,0.6725514,-1.9642154,-9.276809
1421106766201.00,0.77433974,-2.0627105,-9.395362
1421106766202.00,0.78781176,-2.1100123,-9.369166
1421106766220.00,0.66312104,-2.0953426,-9.230405
1421106766235.00,0.82268924,-2.0907023,-9.344318
1421106766254.00,0.75652677,-2.050436,-9.360785
1421106766275.00,0.6863228,-2.0680993,-9.30989
1421106766297.00,0.7819739,-2.002386,-9.320667
1421106766314.00,0.7481442,-1.972598,-9.349558
1421106766334.00,0.70802766,-2.172133,-9.313183
1421106766355.00,0.6936575,-2.0359163,-9.451046
1421106766375.00,0.7952962,-2.011966,-9.270073
1421106766396.00,0.64126647,-2.0559745,-9.337433
1421106766415.00,0.68662214,-2.0513341,-9.325757
1421106766484.00,0.8238867,-2.0528312,-9.193582
1421106766485.00,0.8276289,-2.0814216,-9.359587
1421106766486.00,0.8425978,-2.104324,-9.426198
1421106766495.00,0.7327263,-2.0992346,-9.306447
1421106766514.00,0.6512956,-2.0805235,-9.3806925
1421106766535.00,0.755479,-2.13037,-9.424702
1421106766557.00,0.7240443,-2.0118165,-9.405392
1421106766575.00,0.72015244,-2.0184028,-9.374705
1421106766605.00,0.6740483,-2.1131556,-9.409583
1421106766615.00,0.8602611,-2.0782783,-9.271869
1421106766635.00,0.77703416,-2.0435505,-9.409134
1421106766655.00,0.7214996,-2.0863614,-9.460177
1421106766675.00,0.73721695,-2.131268,-9.430988
1421106766695.00,0.84349597,-2.008673,-9.351503
1421106766716.00,0.7843689,-1.9613713,-9.258397
1421106766735.00,0.7060817,-2.0333717,-9.326805
1421106766755.00,0.7339238,-1.9784359,-9.387578
1421106766775.00,0.7955955,-2.049089,-9.351653
1421106766834.00,0.7339238,-2.0441492,-9.358988
1421106766835.00,0.73182815,-2.015409,-9.402397
1421106766836.00,0.72524184,-1.950893,-9.437874
1421106766856.00,0.7988887,-2.0248394,-9.345666
1421106766875.00,0.75652677,-2.1249812,-9.416169
1421106766895.00,0.9011261,-1.9844234,-9.4176655
1421106766915.00,0.791554,-2.1369562,-9.446257
1421106766934.00,0.7658075,-2.1435425,-9.346863
1421106766955.00,0.6950047,-2.0429516,-9.342522
1421106766975.00,0.8494835,-2.13037,-9.296418
1421106766994.00,0.7373666,-2.126478,-9.336085
1421106767015.00,0.6572832,-2.0416045,-9.294921
1421106767035.00,0.76101744,-2.1573138,-9.413774
1421106767055.00,0.7165599,-2.1296215,-9.338631
1421106767077.00,0.70787793,-2.0375628,-9.340426
1421106767097.00,0.75996965,-2.0794756,-9.398356
1421106767179.00,0.7728429,-2.0636086,-9.390273
1421106767180.00,0.7408095,-1.979783,-9.339678
1421106767181.00,0.7274872,-2.0299287,-9.430539
1421106767182.00,0.66850984,-2.0323238,-9.26663
1421106767202.00,0.7137158,-2.1131556,-9.41572
1421106767215.00,0.8027806,-2.0604653,-9.404493
1421106767235.00,0.778531,-1.9173628,-9.377699
1421106767255.00,0.7851173,-2.039359,-9.439072
1421106767278.00,0.90561676,-2.0706441,-9.397009
1421106767295.00,0.72045183,-2.0398083,-9.324859
1421106767325.00,0.7905061,-2.0583696,-9.460776
1421106767339.00,0.7006929,-2.1627026,-9.509275
1421106767355.00,0.719404,-2.031725,-9.334439
1421106767375.00,0.7219487,-2.0559745,-9.321416
1421106767395.00,0.7592212,-2.031276,-9.316326
1421106767470.00,0.7746391,-2.012864,-9.352402
1421106767471.00,0.80367875,-2.0547771,-9.344618
1421106767473.00,0.6816824,-2.078877,-9.342821
1421106767474.00,0.8053253,-2.0832179,-9.440568
1421106767496.00,0.809816,-2.0969894,-9.29522
1421106767516.00,0.6506969,-2.0848646,-9.299112
1421106767536.00,0.6915619,-2.0426524,-9.327404
1421106767556.00,0.79933774,-2.1035757,-9.385932
1421106767575.00,0.6990463,-2.0712428,-9.3188715
1421106767598.00,0.79739183,-2.0905526,-9.402846
1421106767618.00,0.7063811,-2.0631597,-9.464519
1421106767635.00,0.8125104,-2.0016375,-9.383686
1421106767655.00,0.7969428,-2.0302281,-9.3928175
1421106767675.00,0.75143737,-2.0737875,-9.3541975
1421106767695.00,0.823737,-1.9562819,-9.198671
1421106767715.00,0.66416883,-2.1109104,-9.339678
1421106767738.00,0.74350387,-2.1080663,-9.289233
1421106767789.00,0.72359526,-2.0838168,-9.295819
1421106767790.00,0.7355704,-1.9212548,-9.46856
1421106767795.00,0.7858658,-1.977388,-9.4612255
1421106767815.00,0.72643936,-2.0830681,-9.336834
1421106767835.00,0.77299255,-2.1481829,-9.32426
1421106767855.00,0.78347075,-2.044299,-9.519155
1421106767875.00,0.8107141,-2.0874093,-9.416169
1421106767897.00,0.7680528,-2.1171973,-9.399104
1421106767918.00,0.7336244,-2.0454965,-9.279952
1421106767936.00,0.6771918,-2.2126987,-9.268426
1421106767958.00,0.8017328,-2.069746,-9.356593
1421106767975.00,0.77583665,-2.1188438,-9.337583
1421106767995.00,0.86160827,-2.0216959,-9.319021
1421106768015.00,0.8262817,-2.0082238,-9.428444
1421106768036.00,0.8186476,-2.056274,-9.3558445
1421106768055.00,0.7484436,-2.0344193,-9.312136
1421106768125.00,0.7843689,-2.090403,-9.369166
1421106768125.00,0.7232959,-1.99565,-9.285341
1421106768127.00,0.70937485,-2.0308268,-9.30046
1421106768135.00,0.6777905,-2.047143,-9.378298
1421106768155.00,0.7379654,-2.0299287,-9.361532
1421106768175.00,0.8822653,-2.0431013,-9.41093
1421106768195.00,0.89109695,-1.9583775,-9.274264
1421106768215.00,0.92178315,-2.1183949,-9.251362
1421106768240.00,0.9539662,-2.0752845,-9.214389
1421106768255.00,0.90217394,-2.009122,-9.286838
1421106768276.00,0.89738387,-1.943259,-9.37725
1421106768296.00,0.82463515,-2.0137625,-9.371712
1421106768316.00,1.0109977,-2.0781286,-9.341624
1421106768335.00,0.9394464,-2.1285737,-9.388327
1421106768358.00,0.8376581,-2.1142035,-9.293425
1421106768377.00,0.732876,-2.1773722,-9.313183
1421106768430.00,0.6716533,-2.038461,-9.410181
1421106768431.00,0.6821315,-2.003883,-9.4419155
1421106768435.00,0.72643936,-2.186653,-9.360335
1421106768455.00,0.5840854,-2.0359163,-9.446107
1421106768475.00,0.60683805,-2.0454965,-9.295969
1421106768495.00,0.79993653,-2.049538,-9.39626
1421106768515.00,0.69036436,-1.9296373,-9.256152
1421106768535.00,0.8310718,-2.052981,-9.336834
1421106768555.00,0.78122544,-1.9499949,-9.356144
1421106768575.00,0.8696915,-2.0761826,-9.2818985
1421106768603.00,0.74110883,-2.1655467,-9.344917
1421106768616.00,0.7842192,-1.9664607,-9.427995
1421106768638.00,0.77718383,-2.0194504,-9.360485
1421106768655.00,0.7532337,-1.9746937,-9.313333
1421106768675.00,0.74485105,-2.0366647,-9.246272
1421106768695.00,0.78631485,-1.9832258,-9.292676
1421106768776.00,0.80592406,-2.0496876,-9.296119
1421106768777.00,0.7791298,-2.0806732,-9.2802515
1421106768779.00,0.74410266,-1.9805315,-9.320817
1421106768779.00,0.84873503,-1.971101,-9.294023
1421106768797.00,0.84169966,-2.0004401,-9.346264
1421106768815.00,0.83286804,-1.9679576,-9.311836
1421106768835.00,0.7975415,-2.114503,-9.315129
1421106768855.00,0.83571213,-2.0694466,-9.289383
1421106768875.00,0.80757064,-2.0179536,-9.359437
1421106768895.00,0.82328796,-2.0323238,-9.336684
1421106768915.00,0.755479,-2.06301,-9.302855
1421106768937.00,0.8393047,-2.0074754,-9.301507
1421106768955.00,0.8268805,-2.0300784,-9.298663
1421106768975.00,0.81730044,-1.9832258,-9.295071
1421106768996.00,0.8316705,-2.0806732,-9.358239
1421106769015.00,0.71326673,-2.1348605,-9.50239
1421106769038.00,0.78856015,-2.1492307,-9.282048
1421106769106.00,0.7313791,-2.0597167,-9.333391
1421106769107.00,0.775687,-2.0718415,-9.2625885
1421106769108.00,0.809816,-2.088457,-9.307944
1421106769115.00,0.84514254,-2.0381615,-9.284892
1421106769135.00,0.8273296,-2.037114,-9.452992
1421106769155.00,0.7924521,-2.181264,-9.293125
1421106769175.00,0.81415695,-2.0260367,-9.270822
1421106769195.00,0.8017328,-2.0474424,-9.272917
1421106769215.00,0.7219487,-1.9829265,-9.256302
1421106769235.00,0.7686516,-1.9883152,-9.339977
1421106769255.00,0.72808594,-2.0550764,-9.352551
1421106769276.00,0.79005706,-2.052382,-9.431587
1421106769295.00,0.8063731,-2.094744,-9.394913
1421106769316.00,0.87493056,-2.0369642,-9.447903
1421106769335.00,0.7794292,-1.9823277,-9.388926
1421106769358.00,0.7262897,-2.074087,-9.207503
1421106769379.00,0.8089178,-2.083667,-9.360785
1421106769449.00,0.8991802,-2.0954924,-9.233399
1421106769451.00,0.73572004,-1.9760408,-9.26154
1421106769455.00,0.79769117,-1.9669098,-9.466015
1421106769456.00,0.6834787,-2.0122654,-9.307645
1421106769475.00,0.8503816,-2.0398083,-9.45434
1421106769496.00,0.8080197,-2.0757334,-9.435479
1421106769515.00,0.8095166,-2.0348685,-9.297017
1421106769537.00,0.7870633,-2.0017872,-9.41557
1421106769558.00,0.8653505,-1.921105,-9.48278
1421106769590.00,0.8508307,-2.1041744,-9.428742
1421106769598.00,0.7447014,-2.1489313,-9.256451
1421106769615.00,0.7453001,-2.001937,-9.325458
1421106769636.00,0.8222401,-2.031276,-9.314231
1421106769656.00,0.7244934,-2.1032763,-9.338929
1421106769680.00,0.85023195,-2.066303,-9.44446
1421106769698.00,0.8909473,-2.0131636,-9.434581
1421106769760.00,0.85906357,-2.0733385,-9.303753
1421106769761.00,0.78152484,-2.1574636,-9.248368
1421106769762.00,0.809816,-2.1433928,-9.335486
1421106769781.00,0.83556247,-2.073039,-9.314231
1421106769796.00,0.7541318,-2.0742366,-9.304651
1421106769815.00,0.8431966,-2.0871098,-9.283844
1421106769835.00,0.8559201,-2.0770807,-9.319171
1421106769855.00,0.77448946,-2.0085232,-9.31498
1421106769878.00,0.7782317,-2.0800745,-9.3613825
1421106769895.00,0.91384965,-1.9832258,-9.351204
1421106769916.00,0.7643106,-2.1127067,-9.351953
1421106769939.00,0.75368273,-2.1269271,-9.501192
1421106769955.00,0.7532337,-2.0737875,-9.389375
1421106769975.00,0.76535845,-2.0466938,-9.291778
1421106769995.00,0.75996965,-2.089505,-9.350306
1421106770069.00,0.75742495,-2.0838168,-9.322314
1421106770070.00,0.81310916,-2.0240908,-9.346414
1421106770071.00,0.898282,-2.0818708,-9.327553
1421106770075.00,0.74110883,-2.0916004,-9.442065
1421106770098.00,0.7297325,-1.9534378,-9.355994
1421106770115.00,0.7779323,-2.038461,-9.393566
1421106770139.00,0.8255333,-2.0872595,-9.323512
1421106770156.00,0.762664,-2.0185523,-9.405841
1421106770175.00,0.80472654,-2.0648062,-9.382938
1421106770196.00,0.80487627,-2.0992346,-9.362431
1421106770228.00,0.7391629,-2.0731888,-9.365274
1421106770235.00,0.8583151,-2.063908,-9.302256
1421106770256.00,0.7547305,-2.0781286,-9.302106
1421106770276.00,0.8881032,-2.108216,-9.332643
1421106770296.00,0.8370593,-2.0755837,-9.333691
1421106770315.00,0.76461,-2.089505,-9.347462
1421106770336.00,0.8270302,-1.9989432,-9.412726
1421106770420.00,0.7183562,-1.9478993,-9.445209
1421106770421.00,0.8376581,-2.0389102,-9.389674
1421106770422.00,0.7659572,-2.0547771,-9.31977
1421106770423.00,0.690065,-2.0390596,-9.330398
1421106770440.00,0.78526706,-1.9017951,-9.287287
1421106770456.00,0.79140425,-2.118694,-9.416768
1421106770475.00,0.74634796,-2.0565734,-9.308543
1421106770495.00,0.7774832,-2.08217,-9.418115
1421106770515.00,0.8586145,-2.0429516,-9.343121
1421106770536.00,0.72419405,-2.0752845,-9.276659
1421106770555.00,0.8557704,-1.9446062,-9.341475
1421106770575.00,0.86834425,-1.9844234,-9.328751
1421106770595.00,0.87807405,-2.0627105,-9.356144
1421106770616.00,0.8893007,-2.046544,-9.384584
1421106770635.00,0.7870633,-2.0984862,-9.281749
1421106770656.00,0.61147845,-2.1148024,-9.285192
1421106770736.00,0.67195266,-2.1285737,-9.355246
1421106770737.00,0.8020322,-2.1579125,-9.336385
1421106770737.00,0.65458876,-2.0613635,-9.392069
1421106770738.00,0.8836125,-1.9440074,-9.378148
1421106770756.00,0.7702982,-1.9963984,-9.393716
1421106770776.00,0.8515791,-1.8938617,-9.383388
1421106770800.00,0.7577243,-1.9788849,-9.372161
1421106770817.00,0.84589094,-2.0032842,-9.435479
1421106770837.00,0.7725435,-2.122137,-9.356593
1421106770856.00,0.6592291,-2.1183949,-9.355096
1421106770875.00,0.7608678,-2.1255798,-9.372459
1421106770895.00,0.6280939,-2.0848646,-9.279653
1421106770916.00,0.7590715,-2.1246817,-9.211544
1421106770936.00,0.7969428,-2.0324736,-9.298214
1421106770956.00,0.79439807,-2.1921914,-9.342671
1421106770975.00,0.7644603,-2.0935464,-9.298513
1421106770996.00,0.85397416,-2.1465364,-9.415421
1421106771053.00,0.9162447,-1.9431093,-9.434281
1421106771053.00,0.7427554,-2.089505,-9.395512
1421106771059.00,0.69216067,-2.0282822,-9.433383
1421106771076.00,0.8253836,-2.0118165,-9.336385
1421106771096.00,0.7442523,-2.0918999,-9.405092
1421106771116.00,0.74949145,-2.1100123,-9.410181
1421106771136.00,0.91893905,-2.0246897,-9.259595
1421106771161.00,0.9722282,-2.0487895,-9.240285
1421106771176.00,0.8608598,-1.9856209,-9.373208
1421106771196.00,0.9861493,-2.0434008,-9.420211
1421106771216.00,0.89543796,-2.031725,-9.37695
1421106771236.00,0.812211,-2.1174967,-9.377399
1421106771255.00,0.91639435,-2.141896,-9.317674
1421106771276.00,0.8247849,-2.0707939,-9.352402
1421106771295.00,0.7291338,-2.0652552,-9.393566
1421106771315.00,0.74769515,-2.0481908,-9.460327
1421106771338.00,0.85666853,-2.1567152,-9.380243
1421106771423.00,0.79963714,-2.1359084,-9.457783
1421106771424.00,0.6279442,-2.0477417,-9.275611
1421106771425.00,0.9020242,-2.113455,-9.430839
1421106771427.00,0.8783734,-2.1561162,-9.505234
1421106771436.00,0.82328796,-2.0790267,-9.480236
1421106771455.00,0.8186476,-2.0595672,-9.308842
1421106771475.00,0.86579955,-2.0520828,-9.3735075
1421106771495.00,0.8068222,-2.136507,-9.282946
1421106771526.00,0.8321196,-1.9857706,-9.308991
1421106771536.00,0.87777466,-1.9303857,-9.434731
1421106771556.00,0.8027806,-2.0733385,-9.301507
1421106771576.00,0.81550413,-2.0438497,-9.350006
1421106771596.00,0.77179503,-2.1239333,-9.35779
1421106771616.00,0.80083466,-2.040407,-9.331744
1421106771638.00,0.78227323,-2.1640499,-9.428144
1421106771656.00,0.85382444,-2.052981,-9.372609
1421106771709.00,0.8427475,-2.0016375,-9.2995615
1421106771710.00,0.91639435,-2.1146526,-9.360335
1421106771716.00,0.8027806,-2.0308268,-9.449699
1421106771736.00,0.9162447,-2.1671934,-9.33414
1421106771756.00,0.77718383,-2.098636,-9.36767
1421106771776.00,0.8222401,-2.0161574,-9.286688
1421106771796.00,0.8196954,-2.0664527,-9.321416
1421106771816.00,0.8414003,-2.0169058,-9.322165
1421106771840.00,0.7791298,-1.9740949,-9.41587
1421106771856.00,0.9080118,-2.0597167,-9.520352
1421106771876.00,0.7801776,-2.1782703,-9.2416315
1421106771896.00,0.762664,-2.113904,-9.245075
1421106771916.00,0.77957886,-2.0712428,-9.304801
1421106771936.00,0.88825285,-2.0844154,-9.282198
1421106771956.00,0.80248123,-2.0766315,-9.3806925
1421106771976.00,0.8472382,-2.038012,-9.338032
1421106772002.00,0.76760375,-2.1162992,-9.370364
1421106772077.00,0.85113007,-2.0706441,-9.371861
1421106772078.00,0.8095166,-2.0597167,-9.286688
1421106772079.00,0.8152048,-2.1329145,-9.257948
1421106772080.00,0.81789917,-2.0198996,-9.432186
1421106772098.00,0.8267308,-1.9374211,-9.417068
1421106772115.00,0.84604067,-2.0058289,-9.3083935
1421106772136.00,0.8559201,-2.0356169,-9.201216
1421106772156.00,0.8414003,-2.1712348,-9.242979
1421106772176.00,0.8529263,-1.945654,-9.333241
1421106772208.00,0.9213341,-2.092798,-9.416019
1421106772216.00,0.94169176,-2.0862117,-9.356443
1421106772237.00,0.8957373,-2.0872595,-9.354048
1421106772256.00,0.9491762,-1.9755918,-9.380094
1421106772276.00,0.85651886,-2.0818708,-9.369316
1421106772296.00,0.7791298,-2.0992346,-9.298214
1421106772371.00,0.739612,-2.0917501,-9.293275
1421106772372.00,0.8222401,-2.1080663,-9.455836
1421106772373.00,0.782872,-2.0839663,-9.332643
1421106772380.00,0.7640112,-2.0887563,-9.363928
1421106772399.00,0.7899074,-2.0707939,-9.319171
1421106772416.00,0.77583665,-2.0272343,-9.337283
1421106772437.00,0.8804691,-2.1056712,-9.2813
1421106772457.00,0.76610684,-2.1516256,-9.305249
1421106772476.00,0.875679,-2.1640499,-9.297466
1421106772502.00,0.9370514,-2.0240908,-9.321116
1421106772518.00,0.92208254,-2.1219873,-9.3806925
1421106772536.00,0.8240364,-2.031276,-9.32396
1421106772557.00,0.9250763,-2.103875,-9.368867
1421106772577.00,0.8478369,-2.0130138,-9.373957
1421106772597.00,0.82643145,-2.0398083,-9.2923765
1421106772620.00,0.7461983,-2.054328,-9.3100395
1421106772703.00,0.78915894,-2.1773722,-9.286538
1421106772704.00,0.81445634,-2.0553758,-9.38698
1421106772705.00,0.6831793,-2.0203485,-9.434731
1421106772706.00,0.7138655,-1.9618204,-9.371712
1421106772716.00,0.6185138,-1.9673588,-9.403146
1421106772736.00,0.6908134,-1.9929557,-9.264833
1421106772756.00,0.7020401,-2.0657043,-9.277408
1421106772776.00,0.66656387,-1.9576291,-9.394764
1421106772796.00,0.7098239,-2.0820205,-9.471105
1421106772816.00,0.8358618,-2.2061124,-9.3541975
1421106772836.00,0.6623726,-2.1553679,-9.322165
1421106772856.00,0.8020322,-1.9434086,-9.282946
1421106772876.00,0.83571213,-2.0276835,-9.380842
1421106772898.00,0.87747526,-2.0621119,-9.36767
1421106772916.00,0.9696835,-2.0651057,-9.369316
1421106772937.00,0.99213684,-2.1112096,-9.446556
1421106772999.00,0.9377998,-2.1068687,-9.443861
1421106773000.00,0.93226135,-2.1179457,-9.203462
1421106773002.00,0.90277267,-2.1064196,-9.325458
1421106773022.00,0.8798703,-2.0540285,-9.3536
1421106773037.00,0.8569679,-2.1761746,-9.367371
1421106773056.00,0.69470537,-2.1824615,-9.346713
1421106773076.00,0.67359924,-2.1411474,-9.372459
1421106773096.00,0.6724017,-2.232308,-9.3083935
1421106773117.00,0.60429335,-2.071093,-9.470057
1421106773136.00,0.53019744,-1.9670595,-9.3050995
1421106773157.00,0.7063811,-1.9955003,-9.342971
1421106773176.00,0.7955955,-2.0378623,-9.519005
1421106773196.00,0.83062273,-2.05328,-9.336984
1421106773216.00,0.8785231,-1.9519409,-9.331744
1421106773236.00,0.89139634,-1.9887643,-9.333241
1421106773258.00,0.8903485,-2.1526735,-9.265732
1421106773276.00,1.0365944,-2.1833596,-9.442365
1421106773339.00,1.07237,-2.0203485,-9.326655
1421106773340.00,0.9571097,-2.0974383,-9.316775
1421106773341.00,0.92178315,-2.0767813,-9.349408
1421106773361.00,0.9529184,-2.0719912,-9.240285
1421106773376.00,0.99019086,-2.0678,-9.431288
1421106773397.00,0.8631052,-2.078877,-9.2923765
1421106773416.00,0.85412383,-2.1109104,-9.362281
1421106773436.00,0.8577164,-2.049987,-9.389674
1421106773456.00,0.86699706,-2.100582,-9.282946
1421106773476.00,0.9508228,-2.0686982,-9.278156
1421106773496.00,0.9352551,-2.1275258,-9.253008
1421106773516.00,0.9270222,-1.9959494,-9.420361
1421106773536.00,0.825683,-1.923051,-9.314381
1421106773556.00,0.9009764,-2.0327728,-9.372011
1421106773578.00,0.9116043,-2.016756,-9.372311
1421106773606.00,0.8696915,-2.0609143,-9.288485
1421106773675.00,0.9288185,-2.1020787,-9.323063
1421106773677.00,0.92118436,-2.0011885,-9.351503
1421106773678.00,0.85846484,-2.0417542,-9.350755
1421106773679.00,0.80487627,-2.0652552,-9.3067465
1421106773696.00,0.83541274,-2.1398003,-9.294472
1421106773716.00,0.70802766,-2.1101618,-9.332343
1421106773736.00,0.6918613,-2.0260367,-9.240135
1421106773757.00,0.8158035,-1.9026933,-9.371412
1421106773776.00,0.78631485,-2.0010388,-9.453741
1421106773796.00,0.76386154,-2.136058,-9.378298
1421106773816.00,0.7774832,-2.0953426,-9.312734
1421106773836.00,0.789608,-2.1227357,-9.267229
1421106773856.00,0.669857,-1.9675086,-9.240135
1421106773876.00,0.8000862,-1.9275416,-9.320218
1421106773901.00,0.8771759,-2.102827,-9.459279
1421106773916.00,0.94333833,-2.0826192,-9.347312
1421106774002.00,0.9060658,-2.228416,-9.235195
1421106774004.00,0.9383986,-2.1369562,-9.200767
1421106774004.00,1.0151889,-2.0844154,-9.267977
1421106774006.00,1.1837384,-2.087559,-9.311836
1421106774090.00,1.2323872,-2.1204903,-9.335786
1421106774091.00,1.1532019,-2.0704944,-9.426198
1421106774092.00,1.1238629,-2.157164,-9.377699
1421106774093.00,1.111289,-2.12064,-9.302855
1421106774102.00,1.2005036,-2.1020787,-9.338032
1421106774116.00,1.1865824,-2.1987777,-9.282048
1421106774147.00,1.0433304,-2.10627,-9.249266
1421106774156.00,1.0313553,-2.038461,-9.388926
1421106774180.00,0.98674804,-2.1224363,-9.307795
1421106774196.00,0.9607022,-2.092349,-9.267379
1421106774216.00,0.8702902,-2.0151095,-9.274414
1421106774236.00,0.873284,-1.9854712,-9.3735075
1421106774303.00,0.94333833,-2.1800666,-9.28115
1421106774304.00,0.9244775,-2.1734803,-9.280102
1421106774305.00,0.8797206,-2.2194347,-9.363479
1421106774316.00,0.8952882,-2.023492,-9.421707
1421106774340.00,0.8196954,-2.1279747,-9.369765
1421106774356.00,0.9244775,-2.031725,-9.330847
1421106774376.00,0.8943901,-1.9740949,-9.393716
1421106774399.00,0.8890013,-2.0459454,-9.3453665
1421106774417.00,0.99557966,-2.0080743,-9.385333
1421106774438.00,0.95366687,-2.132615,-9.368119
1421106774461.00,0.9364526,-2.1624033,-9.312584
1421106774487.00,0.9318123,-2.0989351,-9.480086
1421106774496.00,1.011297,-2.0079246,-9.404344
1421106774516.00,0.97686857,-1.9980451,-9.27142
1421106774536.00,0.9389973,-2.094744,-9.29043
1421106774556.00,0.89932984,-2.0734882,-9.294771
1421106774578.00,1.0181826,-2.0622616,-9.395212
1421106774663.00,1.0371932,-2.1140537,-9.353748
1421106774664.00,1.0111473,-2.0719912,-9.3292
1421106774665.00,1.1150312,-2.0011885,-9.23295
1421106774666.00,0.90441924,-2.031725,-9.291179
1421106774679.00,0.97656924,-1.9348764,-9.239836
1421106774696.00,0.8515791,-1.9922072,-9.336684
1421106774718.00,0.92552537,-2.0453467,-9.414522
1421106774737.00,1.0282118,-2.1472847,-9.3536
1421106774756.00,0.9699829,-2.0439994,-9.365424
1421106774777.00,0.82837737,-2.1619542,-9.237441
1421106774798.00,0.8861572,-2.1025279,-9.475446
1421106774816.00,0.966091,-2.191892,-9.379346
1421106774836.00,0.9298663,-2.0805235,-9.310489
1421106774858.00,0.9313632,-2.0938458,-9.407936
1421106774877.00,1.0395882,-1.9308348,-9.275311
1421106774898.00,1.0120454,-1.9035915,-9.382938
1421106774976.00,0.9741742,-2.120191,-9.34836
1421106774977.00,0.94169176,-2.1615052,-9.231303
1421106774978.00,0.9198372,-2.1752765,-9.174122
1421106774979.00,1.0036628,-2.1953347,-9.333541
1421106774996.00,0.8884026,-2.0878582,-9.3663225
1421106775016.00,0.9090596,-1.9363732,-9.377399
1421106775037.00,0.8231383,-1.9407142,-9.327404
1421106775057.00,0.84484315,-2.1823118,-9.304951
1421106775077.00,0.86325485,-2.1680915,-9.344169
1421106775098.00,0.71446425,-2.1350102,-9.246871
1421106775117.00,0.65907943,-1.9420614,-9.217981
1421106775138.00,0.67329985,-1.9782861,-9.29552
1421106775156.00,0.63363236,-2.057172,-9.388476
1421106775176.00,0.660726,-2.0734882,-9.441616
1421106775196.00,0.658331,-2.0366647,-9.358988
1421106775218.00,0.73601943,-1.9827768,-9.30974
1421106775239.00,0.8029303,-2.0992346,-9.370813
1421106775261.00,0.78915894,-2.1056712,-9.3944645
1421106775322.00,0.8535251,-2.1267774,-9.360485
1421106775323.00,0.8205936,-2.105372,-9.346115
1421106775324.00,0.9065149,-2.08217,-9.333391
1421106775336.00,0.9783655,-2.1148024,-9.419462
1421106775356.00,0.91250247,-2.041305,-9.389375
1421106775377.00,0.90980804,-2.0374131,-9.283095
1421106775397.00,1.0458751,-2.093696,-9.305249
1421106775416.00,0.920885,-2.0853136,-9.3083935
1421106775436.00,0.89543796,-2.0883074,-9.364975
1421106775458.00,0.9898915,-2.1377046,-9.359736
1421106775477.00,0.99078965,-2.1257296,-9.335636
1421106775497.00,0.9289682,-2.1026773,-9.438024
1421106775520.00,0.8399034,-2.0734882,-9.374106
1421106775540.00,0.8822653,-2.039359,-9.308693
1421106775559.00,0.9264235,-1.9850221,-9.42051
1421106775643.00,0.8912466,-2.0707939,-9.3771
1421106775644.00,0.8342152,-1.9880159,-9.360335
1421106775645.00,0.8400531,-2.16884,-9.48308
1421106775646.00,0.90441924,-2.0709434,-9.380543
1421106775659.00,0.80487627,-2.1122575,-9.310638
1421106775680.00,0.8515791,-2.0624113,-9.288185
1421106775696.00,0.92028624,-2.0492387,-9.344468
1421106775717.00,0.93076444,-2.0505857,-9.294172
1421106775737.00,0.86295545,-2.074985,-9.333241
1421106775756.00,0.7592212,-2.0755837,-9.405991
1421106775777.00,0.8053253,-2.0113673,-9.269923
1421106775798.00,0.823737,-2.0800745,-9.29058
1421106775819.00,0.8855585,-2.1944366,-9.436526
1421106775837.00,0.89394104,-2.0628603,-9.301657
1421106775857.00,0.8842113,-2.025438,-9.36782
1421106775931.00,0.8497829,-1.9920574,-9.410031
1421106775933.00,0.80083466,-2.0303779,-9.250913
1421106775934.00,0.89618635,-1.9911593,-9.279353
1421106775936.00,0.93106383,-2.1692889,-9.328002
1421106775956.00,0.8747809,-2.0516336,-9.371113
1421106775977.00,0.92687255,-2.032174,-9.28115
1421106775997.00,0.92028624,-2.0953426,-9.341924
1421106776016.00,0.9419911,-2.0252883,-9.289832
1421106776036.00,0.8475375,-1.9999909,-9.494456
1421106776058.00,0.8384065,-2.1029768,-9.26199
1421106776080.00,0.8253836,-2.1604574,-9.402547
1421106776097.00,0.7964937,-2.0368145,-9.440867
1421106776117.00,0.8199948,-2.1845572,-9.320368
1421106776137.00,0.83556247,-2.1294718,-9.408685
1421106776157.00,0.8674461,-2.0513341,-9.334739
1421106776177.00,1.0204281,-2.115401,-9.21379
1421106776197.00,0.8904982,-2.099983,-9.245224
1421106776274.00,0.8327184,-2.115401,-9.354796
1421106776275.00,0.96938413,-2.1644988,-9.313782
1421106776277.00,0.9963281,-2.1445904,-9.464968
1421106776278.00,0.99303496,-2.0878582,-9.298513
1421106776297.00,0.8849597,-2.0534298,-9.358988
1421106776317.00,1.0035132,-2.0282822,-9.363479
1421106776337.00,0.97597045,-2.0664527,-9.28085
1421106776356.00,1.0764116,-2.047143,-9.267379
1421106776378.00,1.0940748,-2.1719832,-9.3083935
1421106776397.00,1.0532098,-2.0044816,-9.226663
1421106776417.00,1.0642868,-2.043251,-9.356294
1421106776437.00,0.9897418,-2.0683987,-9.26648
1421106776456.00,0.8825647,-2.0320244,-9.344318
1421106776477.00,0.895887,-2.0826192,-9.263487
1421106776500.00,0.77179503,-2.0733385,-9.400302
1421106776519.00,0.74485105,-2.1796174,-9.293873
1421106776540.00,0.8653505,-2.1230352,-9.275311
1421106776620.00,0.79290116,-2.1176462,-9.293275
1421106776621.00,0.8852591,-2.0517833,-9.428144
1421106776622.00,0.8352631,-2.0228934,-9.342671
1421106776622.00,0.99183744,-2.217788,-9.354048
1421106776646.00,0.9421408,-2.0398083,-9.275162
1421106776657.00,0.89483917,-2.0010388,-9.357342
1421106776677.00,1.0657837,-2.0041823,-9.347761
1421106776698.00,0.9219328,-2.141896,-9.4049425
1421106776718.00,0.9551637,-2.0327728,-9.293873
1421106776738.00,0.94558364,-2.1218376,-9.297017
1421106776756.00,0.85412383,-2.086062,-9.286688
1421106776778.00,0.8734337,-2.114503,-9.247021
1421106776798.00,0.9241782,-2.0462449,-9.325907
1421106776817.00,0.8268805,-2.0760329,-9.318572
1421106776837.00,0.90846086,-2.0939956,-9.271271
1421106776856.00,0.8692424,-2.0350182,-9.196575
1421106776877.00,0.8517288,-2.0549269,-9.210197
1421106776899.00,0.77808195,-2.0704944,-9.263187
1421106776952.00,0.83915496,-2.1709356,-9.332942
1421106776954.00,0.8716374,-2.1323159,-9.366622
1421106776957.00,0.7041357,-2.0396585,-9.304202
1421106776977.00,0.8095166,-2.0773802,-9.302705
1421106776997.00,0.6927594,-2.0913012,-9.283545
1421106777017.00,0.82104266,-2.1609063,-9.293425
1421106777037.00,0.85127974,-2.0526814,-9.282048
1421106777057.00,0.86445236,-2.1290226,-9.310339
1421106777077.00,0.88181627,-2.1110601,-9.45898
1421106777097.00,0.88705534,-2.1426444,-9.370364
1421106777117.00,1.0587484,-2.1320164,-9.304352
1421106777137.00,0.9702823,-1.9872675,-9.130114
1421106777157.00,0.8813672,-2.0219953,-9.262888
1421106777177.00,0.8628058,-1.9986438,-9.304202
1421106777247.00,0.91010743,-1.9646645,-9.389674
1421106777248.00,0.94079363,-2.0576212,-9.34836
1421106777249.00,0.89618635,-2.0963905,-9.419612
1421106777257.00,0.9394464,-2.0648062,-9.239387
1421106777278.00,0.9222322,-2.1152513,-9.283095
1421106777297.00,0.9171428,-2.160607,-9.358988
1421106777318.00,0.8614586,-2.1477337,-9.489816
1421106777338.00,1.0297087,-2.131717,-9.368568
1421106777361.00,1.0159373,-2.0743864,-9.363479
1421106777388.00,0.9395961,-2.1243823,-9.366772
1421106777420.00,0.9858499,-2.082769,-9.357342
1421106777421.00,0.91519684,-2.0772305,-9.349708
1421106777437.00,0.9985735,-2.1362078,-9.317674
1421106777458.00,0.9063652,-2.1851559,-9.297017
1421106777477.00,0.9689351,-2.018253,-9.303453
1421106777497.00,0.8969348,-2.1182451,-9.292526
1421106777561.00,0.8168514,-2.1013303,-9.404493
1421106777563.00,0.87777466,-1.9984941,-9.388476
1421106777564.00,0.71596116,-2.1133053,-9.30974
1421106777584.00,0.8298743,-2.0457957,-9.340576
1421106777597.00,0.8349637,-2.0857627,-9.29537
1421106777617.00,0.8364606,-2.0007393,-9.43024
1421106777641.00,0.90696394,-2.0898042,-9.286388
1421106777658.00,0.89244413,-2.0902534,-9.2874365
1421106777678.00,0.9412427,-1.9522403,-9.390273
1421106777696.00,0.94109297,-2.018253,-9.341624
1421106777717.00,1.0186317,-2.0502863,-9.323811
1421106777738.00,1.0121951,-1.9926562,-9.31992
1421106777759.00,0.99543,-2.0550764,-9.328451
1421106777777.00,0.9261241,-2.0261865,-9.327852
1421106777797.00,0.9767189,-2.0112176,-9.325458
1421106777817.00,0.9108559,-2.080224,-9.316775
1421106777886.00,0.9039702,-2.1493804,-9.264983
1421106777887.00,0.84843564,-2.174079,-9.31498
1421106777887.00,0.9397458,-2.1183949,-9.375753
1421106777897.00,0.8837622,-1.9990928,-9.438772
1421106777917.00,0.857417,-2.166894,-9.320967
1421106777937.00,0.8801697,-2.1121078,-9.26663
1421106777957.00,0.8400531,-2.0939956,-9.307495
1421106777977.00,0.8906479,-2.0279827,-9.288934
1421106777998.00,0.87148774,-2.0704944,-9.286688
1421106778020.00,0.7961943,-2.0303779,-9.279203
1421106778039.00,0.96833634,-2.0441492,-9.253158
1421106778057.00,0.9129515,-2.0809727,-9.272168
1421106778077.00,0.9699829,-2.0486398,-9.454041
1421106778097.00,0.9304651,-2.1661456,-9.408984
1421106778118.00,0.8699908,-2.1501288,-9.388027
1421106778137.00,0.8719368,-2.0531304,-9.336834
1421106778157.00,0.9951306,-2.0734882,-9.349857
1421106778213.00,0.98644865,-1.9371217,-9.339977
1421106778214.00,0.97312635,-2.073039,-9.328451
1421106778219.00,0.9780661,-2.1796174,-9.351953
1421106778238.00,0.90816146,-2.0776794,-9.347761
1421106778258.00,0.8927435,-2.073039,-9.320068
1421106778277.00,1.0409354,-2.0938458,-9.416019
1421106778297.00,0.93914706,-2.1074674,-9.377998
1421106778320.00,0.87522995,-2.0002904,-9.303304
1421106778341.00,0.88540876,-2.2189856,-9.249266
1421106778357.00,0.90950865,-2.105372,-9.187894
1421106778377.00,0.8966354,-2.0604653,-9.310189
1421106778397.00,0.9102571,-2.147135,-9.303304
1421106778418.00,0.87433183,-2.15911,-9.358988
1421106778437.00,0.8782237,-2.1091142,-9.307645
1421106778457.00,0.92462724,-2.0083735,-9.303304
1421106778477.00,0.8454419,-1.9320323,-9.207952
1421106778498.00,0.80367875,-2.0363653,-9.267229
1421106778558.00,0.8336165,-1.966311,-9.364227
1421106778559.00,0.86071014,-2.1335135,-9.376801
1421106778560.00,0.86160827,-2.0942948,-9.297765
1421106778580.00,0.8333171,-2.020648,-9.2311535
1421106778597.00,0.92717195,-2.0428019,-9.364078
1421106778617.00,0.77014846,-2.0143611,-9.332193
1421106778637.00,0.789608,-2.1456382,-9.480386
1421106778659.00,0.8171507,-2.0848646,-9.451944
1421106778677.00,0.8247849,-2.0845652,-9.264684
1421106778697.00,0.9494755,-2.0525317,-9.22816
1421106778717.00,0.8738828,-1.9940034,-9.251212
1421106778740.00,0.8813672,-2.0435505,-9.323811
1421106778757.00,0.9048683,-2.0778291,-9.48278
1421106778778.00,0.8370593,-2.022145,-9.279503
1421106778797.00,0.8640033,-2.071093,-9.405691
1421106778817.00,0.9451346,-2.13516,-9.363329
1421106778903.00,0.9035211,-1.9519409,-9.269324
1421106778903.00,0.7662566,-2.1276755,-9.343121
1421106778904.00,0.78347075,-2.0829186,-9.236243
1421106778905.00,0.83376616,-2.1029768,-9.324559
1421106778923.00,0.9193881,-1.99086,-9.3630295
1421106778937.00,0.9171428,-2.1457877,-9.35794
1421106778957.00,0.87403244,-2.1441412,-9.380243
1421106778977.00,0.902623,-2.3087988,-9.358688
1421106778997.00,0.9403446,-2.1547692,-9.378897
1421106779017.00,1.0009685,-2.0938458,-9.412726
1421106779037.00,0.98420334,-2.1194427,-9.530381
1421106779057.00,0.89364165,-2.036515,-9.326955
1421106779077.00,0.9247769,-2.0580702,-9.352252
1421106779099.00,0.95321774,-2.0073256,-9.313333
1421106779119.00,1.0138417,-2.038012,-9.456136
1421106779142.00,0.92657316,-2.0190015,-9.438622
1421106779207.00,0.9460327,-2.0188518,-9.338631
1421106779208.00,0.9548643,-2.0378623,-9.281
1421106779209.00,0.855471,-2.167792,-9.2979145
1421106779220.00,0.9611513,-2.044299,-9.41078
1421106779241.00,1.0135423,-2.1258793,-9.336984
1421106779257.00,0.8692424,-1.9987935,-9.361981
1421106779277.00,0.9755214,-1.9957997,-9.296867
1421106779297.00,0.96414506,-2.0604653,-9.355246
1421106779317.00,1.0693762,-2.055226,-9.191636
1421106779337.00,1.0246193,-2.0664527,-9.233699
1421106779357.00,0.9574091,-2.04849,-9.44416
1421106779377.00,0.95501405,-2.051933,-9.389524
1421106779397.00,0.8928932,-2.0103195,-9.315728
1421106779417.00,0.9237291,-2.0290306,-9.3541975
1421106779440.00,0.83062273,-2.1101618,-9.3381815
1421106779460.00,0.7214996,-2.045646,-9.298663
1421106779480.00,0.83945435,-2.0185523,-9.271271
1421106779543.00,0.88091815,-1.9546353,-9.26169
1421106779544.00,0.84858537,-1.9519409,-9.268875
1421106779545.00,0.87552935,-1.9464024,-9.3806925
1421106779562.00,0.89618635,-2.1420455,-9.309441
1421106779578.00,0.9675879,-1.976939,-9.340127
1421106779601.00,0.84424436,-2.0118165,-9.345217
1421106779617.00,0.7966434,-2.0941453,-9.344019
1421106779638.00,0.81535447,-2.0675006,-9.416918
1421106779662.00,0.9913884,-2.1107607,-9.316925
1421106779677.00,0.9466315,-2.1113594,-9.406888
1421106779697.00,0.9931847,-2.144291,-9.275611
1421106779717.00,0.91010743,-2.0675006,-9.308543
1421106779737.00,0.855471,-2.055226,-9.249865
1421106779758.00,0.8472382,-1.9983444,-9.294621
1421106779778.00,0.8628058,-2.0651057,-9.313782
1421106779863.00,0.9014255,-2.0445983,-9.282946
1421106779864.00,0.93076444,-2.0179536,-9.2625885
1421106779865.00,0.9529184,-2.048041,-9.281749
1421106779866.00,0.895887,-2.0772305,-9.277557
1421106779877.00,1.013692,-2.0631597,-9.424103
1421106779897.00,0.98644865,-2.1670437,-9.413325
1421106779917.00,0.93660235,-2.061513,-9.300011
1421106779937.00,0.88316345,-2.0805235,-9.292826
1421106779957.00,0.8866063,-1.9896625,-9.262139
1421106779978.00,1.0324031,-1.8922151,-9.389524
1421106779997.00,0.90411985,-2.02933,-9.357042
1421106780018.00,0.812211,-1.9658619,-9.203462
1421106780039.00,0.8997789,-2.0387604,-9.325008
1421106780058.00,0.88451064,-2.0652552,-9.290879
1421106780077.00,0.8782237,-2.0718415,-9.221873
1421106780097.00,0.8298743,-2.0248394,-9.346115
1421106780119.00,0.91639435,-2.1263282,-9.464968
1421106780138.00,0.8738828,-2.0501368,-9.303903
1421106780194.00,0.9077124,-2.1884491,-9.3100395
1421106780196.00,0.902623,-2.0963905,-9.360485
1421106780197.00,0.8945398,-2.121688,-9.322314
1421106780217.00,0.88436097,-2.0474424,-9.24717
1421106780237.00,0.8214917,-2.0324736,-9.248668
1421106780257.00,0.86699706,-2.1001327,-9.202264
1421106780278.00,0.9279204,-2.0824695,-9.289233
1421106780298.00,0.92208254,-2.0981867,-9.255703
1421106780319.00,0.96264815,-2.0368145,-9.320218
1421106780338.00,0.9129515,-2.183659,-9.307795
1421106780357.00,0.9131012,-2.100881,-9.309141
1421106780377.00,1.0172845,-2.1671934,-9.3244095
1421106780397.00,0.8560698,-2.1242325,-9.330098
1421106780417.00,0.9114546,-2.0727396,-9.2566
1421106780438.00,0.9377998,-2.0800745,-9.310638
1421106780460.00,0.9551637,-2.078877,-9.2681265
1421106780602.00,0.9647438,-2.0752845,-9.268875
1421106780603.00,0.93196195,-2.0550764,-9.279353
1421106780604.00,0.8443941,-2.0392094,-9.329499
1421106780605.00,0.9244775,-2.1185446,-9.305249
1421106780606.00,0.93345886,-2.1065693,-9.336834
1421106780607.00,0.9349558,-2.0913012,-9.176068
1421106780607.00,0.8984317,-2.106719,-9.214838
1421106780625.00,0.8295749,-2.060166,-9.229507
1421106780649.00,0.8681946,-2.061513,-9.284143
1421106780658.00,0.9554631,-2.1633015,-9.142688
1421106780677.00,1.0307565,-2.2061124,-9.328152
1421106780697.00,0.89004916,-2.0143611,-9.270372
1421106780717.00,0.90501803,-2.0347188,-9.267677
1421106780740.00,0.8497829,-2.0660038,-9.278605
1421106780761.00,0.88316345,-2.0561242,-9.236992
1421106780782.00,0.93794954,-2.084116,-9.437125
1421106780801.00,0.81131285,-2.0965402,-9.332193
1421106780876.00,0.90756273,-2.1969814,-9.286688
1421106780877.00,0.93121356,-2.100881,-9.265732
1421106780879.00,0.9038205,-2.145189,-9.330547
1421106780880.00,0.95606184,-2.0983365,-9.398954
1421106780900.00,0.9162447,-2.0448976,-9.203012
1421106780918.00,0.9891431,-2.0356169,-9.247021
1421106780937.00,0.8981323,-1.9017951,-9.24732
1421106780958.00,0.91669375,-2.0251386,-9.154214
1421106780978.00,0.87088895,-2.156865,-9.276659
1421106780997.00,0.9032217,-2.1604574,-9.310638
1421106781018.00,0.82298857,-1.9314336,-9.261391
1421106781038.00,0.8659493,-2.1035757,-9.235345
1421106781057.00,0.82493454,-1.9899619,-9.264085
1421106781080.00,0.9036708,-2.0636086,-9.192085
1421106781100.00,1.0490185,-2.1378543,-9.197773
1421106781180.00,0.93794954,-2.1460872,-9.322763
1421106781181.00,0.8508307,-1.9806812,-9.241931
1421106781182.00,0.8875044,-2.056723,-9.29567
1421106781183.00,0.9885443,-2.1094134,-9.338631
1421106781202.00,0.8273296,-2.0261865,-9.286388
1421106781218.00,0.8909473,-2.0763323,-9.338481
1421106781238.00,0.877625,-2.0411553,-9.118887
1421106781258.00,0.9568103,-2.13995,-9.133556
1421106781277.00,0.91265213,-1.9824774,-9.317973
1421106781298.00,1.0482701,-2.1080663,-9.2416315
1421106781318.00,0.93256074,-2.112557,-9.236243
1421106781337.00,0.934357,-2.0770807,-9.255553
1421106781357.00,0.97851515,-2.0901036,-9.173973
1421106781378.00,0.7864645,-1.9871178,-9.238638
1421106781401.00,0.9383986,-2.2291644,-9.185798
1421106781417.00,0.8643027,-2.081272,-9.255553
1421106781493.00,0.8927435,-2.0181034,-9.262439
1421106781494.00,0.9372011,-2.0537293,-9.341774
1421106781497.00,0.9523196,-2.046544,-9.25705
1421106781498.00,0.8041278,-2.0516336,-9.15571
1421106781519.00,1.0030642,-2.0737875,-9.295819
1421106781538.00,0.84738785,-2.1236339,-9.27591
1421106781558.00,0.95621157,-2.069147,-9.348809
1421106781578.00,0.8687933,-2.1839585,-9.260492
1421106781602.00,0.8988808,-2.0294797,-9.267229
1421106781620.00,0.837209,-2.0366647,-9.230255
1421106781654.00,0.87298465,-2.137555,-9.340726
1421106781660.00,0.8587642,-2.1152513,-9.352551
1421106781677.00,0.87208647,-2.1168978,-9.3050995
1421106781698.00,0.9288185,-2.180815,-9.287736
1421106781717.00,0.9674382,-1.979334,-9.276958
1421106781737.00,0.79394895,-1.9836749,-9.3453665
1421106781758.00,0.9099577,-2.1565654,-9.254505
1421106781813.00,0.87133807,-2.1309686,-9.264833
1421106781814.00,0.85127974,-2.2032683,-9.211694
1421106781817.00,0.968486,-2.1628523,-9.2118435
1421106781838.00,0.9330098,-2.1204903,-9.176817
1421106781858.00,0.95890594,-2.1546195,-9.29537
1421106781878.00,0.9656419,-2.0070264,-9.289682
1421106781897.00,1.1135345,-2.068848,-9.296568
1421106781918.00,1.1005114,-2.1171973,-9.345067
1421106781940.00,1.004561,-2.1498294,-9.311237
1421106781964.00,0.89424044,-2.098636,-9.316476
1421106781978.00,0.9199869,-2.0425026,-9.124725
1421106781998.00,0.81161225,-2.152374,-9.32426
1421106782018.00,0.7402107,-2.038012,-9.366772
1421106782038.00,0.8069719,-2.0395088,-9.291179
1421106782058.00,0.87627774,-2.0776794,-9.35779
1421106782125.00,1.0258168,-2.0666025,-9.2569
1421106782126.00,1.0385404,-2.050436,-9.305249
1421106782127.00,0.99363375,-2.0172052,-9.279952
1421106782138.00,0.96683943,-2.215393,-9.246272
1421106782157.00,0.86355424,-2.0088227,-9.2566
1421106782178.00,0.98570025,-2.1103115,-9.404793
1421106782198.00,0.9898915,-1.9621197,-9.248518
1421106782217.00,1.0243199,-1.9794836,-9.241333
1421106782243.00,0.966091,-2.102827,-9.167087
1421106782266.00,0.92941725,-2.0486398,-9.287287
1421106782280.00,0.9596544,-1.9938538,-9.245973
1421106782303.00,1.0800041,-2.0660038,-9.385034
1421106782318.00,1.1181748,-2.1236339,-9.244476
1421106782338.00,1.2208612,-2.0196002,-9.197474
1421106782358.00,1.3302836,-2.1507275,-9.207054
1421106782378.00,1.2247531,-2.1368065,-9.28579
1421106782401.00,1.1292517,-2.0640578,-9.239985
1421106782460.00,1.0862911,-1.9993923,-9.284143
1421106782461.00,1.1238629,-2.123185,-9.3188715
1421106782462.00,1.0777588,-2.036066,-9.283994
1421106782482.00,1.1181748,-2.0228934,-9.267079
1421106782499.00,0.99213684,-2.1180954,-9.251062
1421106782518.00,1.0157876,-2.1408482,-9.307046
1421106782537.00,0.9134006,-2.0646565,-9.298064
1421106782557.00,1.0377918,-2.0628603,-9.250913
1421106782578.00,1.1252102,-2.026486,-9.330098
1421106782598.00,1.1638298,-2.1032763,-9.299861
1421106782621.00,1.10126,-2.1628523,-9.316326
1421106782638.00,1.0386901,-2.1341121,-9.160051
1421106782658.00,1.015638,-2.0541782,-9.170081
1421106782681.00,1.0138417,-2.1004322,-9.331744
1421106782697.00,1.0671309,-2.001488,-9.247919
1421106782718.00,0.9798624,-2.1314178,-9.315279
1421106782738.00,1.0600955,-2.2165906,-9.277707
1421106782804.00,0.9792636,-2.1492307,-9.276958
1421106782804.00,0.9038205,-2.176474,-9.406289
1421106782805.00,1.0277628,-2.2537134,-9.4032955
1421106782824.00,0.9897418,-2.0676503,-9.260492
1421106782839.00,0.8722362,-2.0695963,-9.297317
1421106782858.00,0.94902647,-2.1146526,-9.395362
1421106782878.00,0.9957294,-2.128424,-9.240734
1421106782898.00,0.9750723,-2.0963905,-9.243877
1421106782921.00,0.9511221,-2.1706362,-9.395062
1421106782939.00,1.0594968,-2.0625608,-9.329799
1421106782959.00,1.0693762,-1.9995419,-9.294771
1421106782979.00,1.0246193,-2.1438417,-9.2554035
1421106782998.00,1.0701246,-2.1059706,-9.320817
1421106783022.00,1.033451,-2.0731888,-9.227711
1421106783040.00,1.049318,-2.133214,-9.2730665
1421106783060.00,1.0394385,-2.1170475,-9.411978
1421106783135.00,1.1114388,-2.0472927,-9.373058
1421106783136.00,1.0092014,-2.0516336,-9.321416
1421106783137.00,0.9131012,-2.0279827,-9.366622
1421106783138.00,0.91235274,-2.0907023,-9.243578
1421106783158.00,0.9969269,-2.0448976,-9.367221
1421106783178.00,0.92058563,-2.1174967,-9.3309965
1421106783199.00,0.9690848,-2.0911515,-9.362281
1421106783219.00,0.979563,-2.0692968,-9.330098
1421106783242.00,1.1705658,-2.0439994,-9.351204
1421106783260.00,1.1180251,-2.0196002,-9.308842
1421106783278.00,1.0774595,-2.13995,-9.354048
1421106783299.00,1.1723621,-2.147584,-9.229807
1421106783318.00,1.1524534,-2.108216,-9.371861
1421106783338.00,1.176703,-2.0706441,-9.402996
1421106783361.00,1.0594968,-2.100582,-9.31962
1421106783380.00,0.9806108,-2.1001327,-9.3486595
1421106783439.00,1.0726694,-2.0338206,-9.340127
1421106783440.00,1.0109977,-2.0181034,-9.263337
1421106783441.00,1.006956,-2.2415886,-9.345217
1421106783468.00,1.0300081,-2.065854,-9.31977
1421106783478.00,0.9831555,-2.0926483,-9.355994
1421106783498.00,1.041085,-2.113904,-9.372311
1421106783518.00,1.0213262,-2.1971312,-9.328301
1421106783538.00,0.98929274,-2.1811144,-9.3735075
1421106783558.00,1.0316547,-2.1474345,-9.392668
1421106783578.00,1.0672805,-2.1815634,-9.358239
1421106783598.00,1.0668315,-2.0920496,-9.198821
1421106783618.00,1.0720706,-2.1242325,-9.172027
1421106783638.00,0.9671388,-2.1278253,-9.245374
1421106783658.00,0.99977094,-2.0429516,-9.354647
1421106783679.00,1.0259665,-2.1089644,-9.300909
1421106783698.00,1.0550061,-2.1853056,-9.421108
1421106783718.00,0.9690848,-2.1802163,-9.378597
1421106783770.00,1.0394385,-2.0842657,-9.363628
1421106783771.00,1.0081536,-2.1335135,-9.28594
1421106783778.00,1.0458751,-2.1936882,-9.240734
1421106783798.00,1.2898678,-2.0246897,-9.4032955
1421106783818.00,1.1412268,-2.1547692,-9.270822
1421106783838.00,1.1024574,-2.086062,-9.346713
1421106783858.00,1.1776012,-2.0833676,-9.280701
1421106783879.00,1.1502081,-2.0239413,-9.201515
1421106783898.00,1.2879218,-2.0761826,-9.18026
1421106783918.00,1.3377681,-2.0580702,-9.212143
1421106783938.00,1.3084291,-2.1728814,-9.231902
1421106783958.00,1.1392808,-2.122586,-9.329799
1421106783979.00,1.0603949,-2.1170475,-9.302555
1421106783998.00,1.2162209,-2.1463866,-9.319171
1421106784018.00,1.0630893,-2.0692968,-9.175619
1421106784087.00,1.181044,-2.1300704,-9.177266
1421106784087.00,1.126707,-1.9621197,-9.13206
1421106784088.00,1.0708731,-2.1737795,-9.347761
1421106784098.00,0.96040285,-1.9464024,-9.350904
1421106784118.00,0.9595047,-1.9960991,-9.323811
1421106784138.00,1.0713222,-1.9493963,-9.285341
1421106784158.00,1.2192147,-2.047143,-9.336834
1421106784178.00,1.0277628,-2.1255798,-9.2256155
1421106784198.00,1.0253677,-2.1402493,-9.287736
1421106784219.00,1.0445279,-2.1978796,-9.487571
1421106784238.00,0.8849597,-2.0719912,-9.441466
1421106784259.00,1.0579998,-1.9197578,-9.244626
1421106784278.00,0.8523276,-1.9969972,-9.174721
1421106784298.00,0.9369017,-2.033671,-9.3928175
1421106784318.00,0.945434,-1.995201,-9.501192
1421106784343.00,0.8117619,-1.9359242,-9.432784
1421106784406.00,0.8957373,-2.008673,-9.360785
1421106784407.00,1.0359956,-1.9824774,-9.376351
1421106784408.00,1.2958553,-2.0625608,-9.381142
1421106784418.00,1.228645,-2.0248394,-9.267677
1421106784439.00,1.2576846,-2.1152513,-9.330547
1421106784458.00,1.3350737,-2.245181,-9.386231
1421106784479.00,1.2266991,-2.212549,-9.262738
1421106784501.00,1.2994478,-2.1674926,-9.194031
1421106784523.00,1.3853691,-2.1017792,-9.195678
1421106784554.00,1.305585,-2.0984862,-9.197174
1421106784561.00,1.1341914,-2.1251307,-9.438473
1421106784578.00,1.0505154,-2.0942948,-9.289832
1421106784598.00,1.0452763,-1.9925065,-9.280551
1421106784618.00,1.0626402,-2.0435505,-9.304352
1421106784638.00,1.1573932,-2.0679498,-9.277408
1421106784658.00,0.9824071,-2.089954,-9.307495
1421106784678.00,1.0728191,-2.0628603,-9.3067465
1421106784739.00,1.0184821,-2.0502863,-9.386231
1421106784740.00,1.217119,-1.9588265,-9.360186
1421106784742.00,1.0003697,-2.039958,-9.385333
1421106784760.00,1.1448194,-2.0031345,-9.360186
1421106784778.00,1.0139914,-2.037114,-9.371562
1421106784798.00,1.0933264,-1.9348764,-9.393716
1421106784818.00,1.1273057,-2.071692,-9.445658
1421106784839.00,1.190175,-2.1207898,-9.471853
1421106784859.00,0.9837543,-2.0547771,-9.270073
1421106784883.00,1.0856923,-2.1294718,-9.219178
1421106784898.00,1.0788066,-2.0013382,-9.347462
1421106784918.00,1.131497,-2.1140537,-9.480386
1421106784942.00,1.1059003,-2.0809727,-9.4121275
1421106784958.00,1.1204201,-2.0311263,-9.317973
1421106784978.00,1.0641371,-2.1246817,-9.296119
1421106784998.00,1.0056088,-2.066303,-9.344917
1421106785018.00,0.97911394,-2.108216,-9.275461
1421106785079.00,1.0720706,-2.0550764,-9.350156
1421106785080.00,1.031505,-1.9984941,-9.359886
1421106785081.00,0.9321117,-2.1031265,-9.212143
1421106785101.00,0.9475296,-2.0261865,-9.339229
1421106785119.00,0.8702902,-1.929787,-9.405841
1421106785138.00,1.137784,-2.0176542,-9.388327
1421106785158.00,0.98959213,-2.1077669,-9.283844
1421106785178.00,1.0514135,-2.1056712,-9.348061
1421106785199.00,0.9656419,-2.1489313,-9.3541975
1421106785218.00,1.1368859,-2.0953426,-9.244476
1421106785239.00,1.2142749,-2.0483406,-9.409284
1421106785258.00,1.2076886,-2.0489392,-9.236543
1421106785278.00,1.1678714,-2.1567152,-9.288784
1421106785299.00,1.0972183,-2.1579125,-9.361233
1421106785323.00,1.031954,-2.1359084,-9.266031
1421106785341.00,1.0568024,-2.0357666,-9.2239685
1421106785407.00,1.1118878,-2.10627,-9.381591
1421106785408.00,0.9852512,-2.0137625,-9.365574
1421106785409.00,1.0687774,-1.972598,-9.481133
1421106785419.00,1.0461745,-2.0772305,-9.350455
1421106785438.00,1.0515633,-1.9926562,-9.260492
1421106785459.00,1.0460248,-2.1076171,-9.379046
1421106785478.00,1.0380913,-2.0883074,-9.353898
1421106785498.00,1.1349399,-2.0200493,-9.370813
1421106785519.00,1.1067984,-2.0270846,-9.3437195
1421106785538.00,1.1223661,-2.114503,-9.281
1421106785560.00,1.1340418,-2.0161574,-9.234297
1421106785578.00,1.0806029,-2.1068687,-9.225765
1421106785599.00,1.1419753,-2.1330643,-9.322015
1421106785619.00,1.1331437,-2.0642076,-9.296568
1421106785639.00,0.9611513,-2.0938458,-9.362281
1421106785658.00,1.0620415,-2.0921993,-9.411229
1421106785743.00,1.1208692,-2.1823118,-9.394614
1421106785744.00,0.9321117,-2.0965402,-9.308244
1421106785745.00,0.9169931,-2.0588186,-9.370364
1421106785746.00,0.95381653,-1.9643651,-9.254355
1421106785759.00,0.9824071,-2.0438497,-9.386082
1421106785778.00,1.0915302,-2.0520828,-9.356893
1421106785798.00,1.0889854,-2.1362078,-9.349708
1421106785821.00,1.0383906,-2.0905526,-9.363628
1421106785839.00,1.0702744,-2.0419037,-9.349558
1421106785860.00,1.0090517,-2.082769,-9.282048
1421106785879.00,1.0123448,-1.9362236,-9.26154
1421106785898.00,1.087788,-2.1050725,-9.279203
1421106785919.00,1.0361453,-2.071093,-9.4494
1421106785938.00,1.1885284,-2.0426524,-9.328601
1421106785959.00,1.1717633,-2.2137465,-9.299112
1421106785978.00,1.0482701,-2.0621119,-9.298513
1421106786045.00,1.1524534,-2.1815634,-9.284892
1421106786046.00,1.0169852,-2.035168,-9.4474535
1421106786047.00,1.0702744,-1.9639161,-9.275611
1421106786059.00,1.0683284,-2.1546195,-9.371861
1421106786079.00,1.1822416,-1.9357746,-9.423803
1421106786098.00,1.0762619,-2.0469933,-9.358539
1421106786118.00,1.2046949,-2.1252804,-9.317374
1421106786138.00,1.1174263,-2.0185523,-9.3536
1421106786159.00,1.1755055,-2.0300784,-9.320518
1421106786179.00,1.0494676,-2.046544,-9.347162
1421106786198.00,1.0461745,-2.0029848,-9.158106
1421106786221.00,1.2314891,-2.0207977,-9.276958
1421106786239.00,1.0722203,-2.1628523,-9.307196
1421106786259.00,1.14931,-2.0689974,-9.285341
1421106786279.00,1.142574,-2.0772305,-9.44446
1421106786299.00,1.22146,-2.1727319,-9.350605
1421106786318.00,1.2261003,-2.0395088,-9.24732
1421106786393.00,1.0696756,-2.0224442,-9.318722
1421106786394.00,1.2277468,-2.0059786,-9.414522
1421106786395.00,1.1600876,-2.0142114,-9.283844
1421106786398.00,1.1153307,-2.0528312,-9.201815
1421106786418.00,1.1014096,-2.1320164,-9.251512
1421106786439.00,1.1163784,-2.0553758,-9.29043
1421106786459.00,1.0669812,-1.973047,-9.2874365
1421106786479.00,0.97207856,-2.0868104,-9.204509
1421106786499.00,1.0027647,-2.1215382,-9.221125
1421106786519.00,0.95860654,-2.1676424,-9.229358
1421106786539.00,0.9196875,-2.0176542,-9.3486595
1421106786559.00,0.9419911,-1.9871178,-9.346563
1421106786579.00,1.0776091,-2.028432,-9.2416315
1421106786599.00,0.94273955,-2.0378623,-9.23774
1421106786618.00,1.0130932,-2.0242405,-9.301657
1421106786671.00,0.9891431,-1.9625688,-9.377549
1421106786671.00,0.9931847,-1.9715501,-9.41078
1421106786678.00,1.0330019,-1.9697539,-9.524244
1421106786702.00,1.0003697,-2.0724404,-9.328301
1421106786719.00,0.98944247,-2.1661456,-9.35764
1421106786739.00,0.8430469,-2.0935464,-9.220975
1421106786760.00,0.93854827,-2.0472927,-9.26663
1421106786784.00,1.0130932,-2.085014,-9.364377
1421106786801.00,0.9662407,-2.0933967,-9.359736
1421106786821.00,1.0126442,-2.0758832,-9.301507
1421106786838.00,1.0336006,-2.0921993,-9.423055
1421106786859.00,1.1118878,-2.1815634,-9.3486595
1421106786880.00,1.0581496,-2.0921993,-9.404793
1421106786899.00,1.0012679,-2.0739372,-9.339378
1421106786922.00,0.94962525,-2.0082238,-9.330697
1421106786942.00,1.0915302,-2.1637504,-9.2802515
