time_millisec,ax,ay,az
1421714473673.00,-1.0217752,3.28432,9.375604
1421714473690.00,-0.97342575,3.307522,9.128468
1421714473712.00,-1.1237133,3.162324,9.219028
1421714473722.00,-1.1243119,3.2858171,9.279802
1421714473742.00,-1.2766951,3.4087114,9.235794
1421714473763.00,-1.2326866,3.4132023,9.298663
1421714473782.00,-1.1482621,3.3862581,9.23295
1421714473803.00,-1.233435,3.3902998,9.475446
1421714473824.00,-1.2157718,3.4048197,9.327553
1421714473842.00,-1.2021501,3.493585,9.277857
1421714473864.00,-1.2945081,3.4281712,9.288784
1421714473883.00,-1.2266991,3.3934433,9.291628
1421714473904.00,-1.2153227,3.4636474,9.342522
1421714473924.00,-1.1389815,3.352279,9.285192
1421714473942.00,-0.9583072,3.478766,9.291778
1421714473963.00,-0.94812834,3.2831228,9.377849
1421714473982.00,-0.9960287,3.4458344,9.4474535
1421714474002.00,-1.2253518,3.3687446,9.486972
1421714474025.00,-1.2259506,3.1946566,9.558673
1421714474044.00,-1.13973,3.1629226,9.408535
1421714474062.00,-1.2413685,3.3784745,9.372609
1421714474083.00,-1.3211527,3.4673896,9.501492
1421714474102.00,-1.4600638,3.3953893,9.369466
1421714474122.00,-1.4121634,3.499872,9.351653
1421714474143.00,-1.2139755,3.4280214,9.197923
1421714474162.00,-1.2000545,3.4515226,9.229208
1421714474182.00,-1.1169772,3.3178506,9.140741
1421714474202.00,-1.0391392,3.2265403,9.144035
1421714474222.00,-1.1942166,3.280578,9.441167
1421714474245.00,-1.2642709,3.5545084,9.452992
1421714474262.00,-1.2989987,3.4182916,9.434731
1421714474281.00,-1.1578423,3.4477804,9.393866
1421714474302.00,-1.2699591,3.325335,9.33384
1421714474322.00,-1.2063414,3.2576756,9.425
1421714474344.00,-1.3063334,3.3989818,9.432934
1421714474364.00,-1.4371614,3.4560132,9.650881
1421714474383.00,-1.2560381,3.393144,9.518406
1421714474403.00,-1.2729529,3.3739839,9.484577
1421714474424.00,-1.2629237,3.2997382,9.377399
1421714474444.00,-1.0469229,3.1659164,9.422007
1421714474463.00,-1.1222163,3.3560212,9.402697
1421714474485.00,-1.1084449,3.1707065,9.286838
1421714474503.00,-1.087788,3.134482,9.3050995
1421714474524.00,-1.2088861,3.247347,9.347162
1421714474543.00,-1.3064831,3.3398547,9.447603
1421714474564.00,-1.2153227,3.2983909,9.579629
1421714474583.00,-1.3907579,3.4498758,9.590406
1421714474604.00,-1.4382092,3.3741333,9.350006
1421714474623.00,-1.3386662,3.4078133,9.388776
1421714474643.00,-1.2491524,3.3188982,9.315728
1421714474664.00,-1.1765534,3.2796798,9.374256
1421714474684.00,-1.14931,3.3525782,9.408086
1421714474703.00,-1.1871812,3.3382082,9.48293
1421714474725.00,-0.9767189,3.4447865,9.481583
1421714474745.00,-1.0377918,3.2792308,9.331445
1421714474763.00,-1.0618918,3.3799713,9.31977
1421714474783.00,-1.2524456,3.479664,9.316177
1421714474803.00,-1.133443,3.3112643,9.294771
1421714474823.00,-1.2040961,3.3932936,9.368269
1421714474844.00,-1.2412189,3.3870068,9.172027
1421714474863.00,-1.2889695,3.4708323,9.401649
1421714474883.00,-1.1958632,3.3922458,9.467812
1421714474905.00,-1.3236973,3.4506245,9.446856
1421714474923.00,-1.1825409,3.3486865,9.389824
1421714474943.00,-1.1735595,3.2895594,9.469459
1421714474963.00,-1.151705,3.3013847,9.467362
1421714474983.00,-1.0725197,3.374283,9.316626
1421714475003.00,-1.1572435,3.4712815,9.339528
1421714475023.00,-1.2711567,3.4299674,9.263038
1421714475045.00,-1.2504996,3.3874557,9.245673
1421714475063.00,-1.2088861,3.367098,9.356443
1421714475084.00,-1.1774515,3.4447865,9.472602
1421714475104.00,-1.0386901,3.2787817,9.514365
1421714475123.00,-1.271007,3.4154475,9.308991
1421714475143.00,-1.2015513,3.2389646,9.337133
1421714475163.00,-1.1319461,3.3352144,9.5037365
1421714475183.00,-1.1668236,3.3676968,9.234297
1421714475203.00,-1.3374687,3.2991395,9.428593
1421714475224.00,-1.2856765,3.3389566,9.272318
1421714475243.00,-1.1966116,3.2648606,9.498498
1421714475264.00,-1.2439133,3.2385154,9.408834
1421714475284.00,-1.2744498,3.3596137,9.448801
1421714475304.00,-1.1825409,3.3500335,9.533824
1421714475323.00,-1.3350737,3.3350646,9.485924
1421714475344.00,-1.1053015,3.2977922,9.316775
1421714475363.00,-1.2729529,3.3600626,9.350156
1421714475385.00,-1.1961626,3.2924035,9.341325
1421714475403.00,-1.1240126,3.3148568,9.294472
1421714475424.00,-1.2533437,3.0894256,9.262139
1421714475445.00,-1.2096345,3.3245864,9.3928175
1421714475463.00,-1.1078463,3.3617094,9.414223
1421714475491.00,-1.1948154,3.3615596,9.509425
1421714475520.00,-1.3090279,3.405119,9.405691
1421714475523.00,-1.2305909,3.4587076,9.3928175
1421714475543.00,-1.2103829,3.3262331,9.419013
1421714475562.00,-1.1885284,3.388803,9.437275
1421714475584.00,-1.2446617,3.2859669,9.321865
1421714475602.00,-1.1726614,3.2572265,9.386231
1421714475622.00,-1.1641291,3.2799792,9.411529
1421714475642.00,-1.2600796,3.299888,9.467063
1421714475662.00,-1.1963123,3.290757,9.401799
1421714475684.00,-1.3016931,3.2983909,9.486523
1421714475704.00,-1.1976595,3.3699422,9.4226055
1421714475722.00,-1.1424243,3.4194891,9.450149
1421714475743.00,-1.0937755,3.3256342,9.399104
1421714475762.00,-1.3165123,3.3706906,9.359886
1421714475784.00,-1.2193643,3.3097672,9.381291
1421714475806.00,-1.33687,3.2401621,9.239985
1421714475824.00,-1.2754976,3.3902998,9.440568
1421714475844.00,-1.2281959,3.3145573,9.445957
1421714475865.00,-1.1407777,3.3913476,9.490265
1421714475884.00,-1.0924283,3.3235388,9.378897
1421714475908.00,-1.1549982,3.3168027,9.3751545
1421714475924.00,-1.1783496,3.3567696,9.358988
1421714475943.00,-1.2546909,3.4618511,9.424702
1421714475964.00,-1.2448114,3.5039136,9.512269
1421714475983.00,-1.2543914,3.424878,9.538315
1421714476008.00,-1.3072315,3.369044,9.253906
1421714476028.00,-1.1431727,3.3938923,9.235794
1421714476051.00,-1.1126362,3.157534,9.358688
1421714476062.00,-1.133443,3.4783168,9.205707
1421714476082.00,-1.2600796,3.3154554,9.432634
1421714476102.00,-1.2504996,3.350333,9.460327
1421714476122.00,-1.2624747,3.2633638,9.409284
1421714476142.00,-1.2502002,3.2226484,9.2890835
1421714476165.00,-1.1530522,3.2778835,9.35345
1421714476181.00,-1.1247611,3.3498838,9.3536
1421714476202.00,-1.2921131,3.322491,9.288035
1421714476222.00,-1.1852353,3.4088612,9.398655
1421714476244.00,-1.3251942,3.453169,9.442365
1421714476263.00,-1.194965,3.3605118,9.403445
1421714476283.00,-1.2584331,3.2248938,9.505084
1421714476303.00,-1.2099339,3.3513808,9.365125
1421714476324.00,-1.1467652,3.2418087,9.489217
1421714476345.00,-1.1934682,3.2653098,9.38713
1421714476363.00,-1.1228151,3.2744408,9.416918
1421714476383.00,-1.1250604,3.2706985,9.330847
1421714476405.00,-1.26951,3.3141084,9.389075
1421714476425.00,-1.3091775,3.3337176,9.451944
1421714476449.00,-1.203198,3.3874557,9.589508
1421714476462.00,-1.2735516,3.2879128,9.403146
1421714476482.00,-1.4191988,3.2835717,9.404643
1421714476502.00,-1.2153227,3.337759,9.369466
1421714476523.00,-1.250799,3.3606615,9.386082
1421714476543.00,-1.1166779,3.4452355,9.330697
1421714476562.00,-1.2072395,3.4069152,9.432784
1421714476582.00,-1.3227992,3.2823744,9.518107
1421714476602.00,-1.2998968,3.3702416,9.550889
1421714476623.00,-1.2588822,3.3335679,9.571096
1421714476642.00,-1.3028907,3.3639545,9.481882
1421714476663.00,-1.0988649,3.4024246,9.355096
1421714476684.00,-1.2020004,3.2591724,9.316925
1421714476703.00,-1.2930112,3.2792308,9.442814
1421714476722.00,-1.2002041,3.39988,9.291029
1421714476743.00,-1.2611275,3.3856595,9.63202
1421714476763.00,-1.5081139,3.2777338,9.417068
1421714476783.00,-1.3500426,3.2614179,9.479188
1421714476804.00,-1.2765454,3.2590227,9.467512
1421714476824.00,-1.2663666,3.2439044,9.457334
1421714476843.00,-1.1307486,3.425327,9.43488
1421714476863.00,-1.1852353,3.4173934,9.454788
1421714476885.00,-1.2204121,3.2614179,9.39132
1421714476902.00,-1.1805949,3.3673975,9.363179
1421714476923.00,-1.2235556,3.328628,9.279353
1421714476942.00,-1.2358301,3.3548236,9.351803
1421714476963.00,-1.3976436,3.4611025,9.469757
1421714476983.00,-1.2314891,3.4347575,9.534123
1421714477003.00,-1.22146,3.233426,9.32411
1421714477022.00,-1.311872,3.2187567,9.26199
1421714477042.00,-1.1443703,3.3597634,9.445059
1421714477062.00,-1.2831317,3.3676968,9.434581
1421714477082.00,-1.2425661,3.3202455,9.466314
1421714477102.00,-1.3480966,3.2967443,9.576036
1421714477122.00,-1.2570859,3.3943415,9.441466
1421714477143.00,-1.3474978,3.1885195,9.364377
1421714477162.00,-1.257535,3.2795303,9.30031
1421714477185.00,-1.1615845,3.182981,9.430839
1421714477207.00,-1.1569442,3.1867232,9.406289
1421714477223.00,-1.2617263,3.3711398,9.328451
1421714477242.00,-1.3341756,3.4512231,9.271121
1421714477264.00,-1.2228072,3.2618668,9.499695
1421714477315.00,-1.2463083,3.2256422,9.379046
1421714477316.00,-1.1741583,3.3123121,9.330248
1421714477327.00,-1.2772938,3.3766782,9.311986
1421714477342.00,-1.3587245,3.4419425,9.4015
1421714477367.00,-1.2199631,3.2915053,9.335337
1421714477381.00,-1.2699591,3.1677127,9.479338
1421714477402.00,-1.3049862,3.2507899,9.5217
1421714477422.00,-1.2705579,3.343597,9.388177
1421714477443.00,-1.2338841,3.2528856,9.332343
1421714477461.00,-1.370999,3.3684454,9.279653
1421714477522.00,-1.3177098,3.264711,9.339079
1421714477526.00,-1.2633728,3.3766782,9.476045
1421714477527.00,-1.2225078,3.3314722,9.49745
1421714477544.00,-1.2261003,3.4039216,9.341325
1421714477594.00,-1.2374767,3.3540752,9.355994
1421714477595.00,-1.2623249,3.2094758,9.3823395
1421714477605.00,-1.2918136,3.3150065,9.32426
1421714477646.00,-1.2744498,3.3639545,9.433832
1421714477647.00,-1.2513977,3.2991395,9.546698
1421714477662.00,-1.241668,3.3557217,9.435779
1421714477695.00,-1.2966037,3.235372,9.5528345
1421714477703.00,-1.3169614,3.1909144,9.495504
1421714477723.00,-1.2660671,3.3633559,9.442365
1421714477756.00,-1.2966037,3.3635056,9.409433
1421714477763.00,-1.2442126,3.372936,9.229807
1421714477781.00,-1.2766951,3.3374598,9.383088
1421714477808.00,-1.1096425,3.3852105,9.35315
1421714477865.00,-1.2741504,3.3837135,9.518406
1421714477866.00,-1.3304334,3.179538,9.544453
1421714477866.00,-1.1352392,3.2650104,9.264983
1421714477881.00,-1.303639,3.2956965,9.405392
1421714477910.00,-1.3136683,3.2780333,9.35345
1421714477923.00,-1.228645,3.2452514,9.267529
1421714477951.00,-1.2106824,3.1850767,9.407487
1421714477961.00,-1.223406,3.2368689,9.36767
1421714477991.00,-1.2295432,3.2365694,9.464668
1421714478002.00,-1.0925779,3.1998959,9.559272
1421714478025.00,-1.0907817,3.0928683,9.272917
1421714478043.00,-1.2284954,3.203638,9.504785
1421714478077.00,-1.0895842,3.2129188,9.621991
1421714478082.00,-1.2578343,3.4112563,9.532627
1421714478144.00,-1.4425502,3.341202,9.277857
1421714478144.00,-1.3445041,3.4605038,9.291179
1421714478145.00,-1.6615448,3.4352064,9.271121
1421714478183.00,-1.7275575,3.5817518,9.236992
1421714478184.00,-1.695075,3.6092944,9.200169
1421714478212.00,-1.4186,3.54897,9.082962
1421714478221.00,-1.6214283,3.5290613,9.162297
1421714478248.00,-1.6173866,3.5254688,9.252708
1421714478285.00,-1.3600717,3.3982334,9.287886
1421714478286.00,-1.3792319,3.1278956,9.385034
1421714478322.00,-1.3765374,3.4111066,9.407038
1421714478323.00,-1.3784834,3.488795,9.386381
1421714478341.00,-1.424887,3.6780016,8.285271
1421714478379.00,-1.6328045,3.84221,9.551488
1421714478383.00,-1.2750485,3.3644037,9.605675
1421714478410.00,-1.5572118,3.8299356,9.094039
1421714478422.00,-1.6551082,3.580105,9.334589
1421714478471.00,-1.3486954,3.5516644,9.170529
1421714478472.00,-1.3049862,3.5203793,9.0551195
1421714478483.00,-1.2998968,3.6932697,9.141789
1421714478503.00,-1.367107,3.465294,9.182355
1421714478521.00,-1.2994478,3.2736924,9.232202
1421714478541.00,-1.2449611,3.2844698,9.388177
1421714478565.00,-1.3771362,3.4567616,9.425449
1421714478584.00,-1.344055,3.3673975,9.416319
1421714478604.00,-1.2323872,3.36141,9.322165
1421714478624.00,-1.3844709,3.4500256,9.329499
1421714478644.00,-1.5271243,3.6286042,9.325757
1421714478664.00,-1.4307247,3.6495607,9.31992
1421714478686.00,-1.4485377,3.441643,9.262289
1421714478707.00,-1.2772938,3.4539175,9.175619
1421714478724.00,-1.2672647,3.3991315,9.121881
1421714478744.00,-1.0951227,3.3591645,9.379046
1421714478764.00,-1.2135265,3.3418007,9.683213
1421714478783.00,-1.1174263,3.3000376,9.631271
1421714478804.00,-1.1091934,3.2216005,9.5440035
1421714478825.00,-0.959355,3.288212,9.44925
1421714478844.00,-0.9517209,3.3760793,9.378597
1421714478863.00,-1.0861413,3.401826,9.386082
1421714478882.00,-0.920885,3.3174014,9.5175085
1421714478903.00,-1.0398875,3.1567855,9.28115
1421714478924.00,-0.9744736,3.3525782,9.369616
1421714478943.00,-1.1913725,3.2687526,9.443263
1421714478963.00,-1.332978,3.3061748,9.419612
1421714478983.00,-1.441203,3.4534686,9.311986
1421714479002.00,-1.4220428,3.4338593,9.296268
1421714479022.00,-1.3117223,3.4251773,9.28085
1421714479042.00,-1.3898598,3.5323544,9.312734
1421714479063.00,-1.4476396,3.382965,9.282646
1421714479084.00,-1.3331277,3.3509316,9.36752
1421714479103.00,-1.4965879,3.393144,9.4419155
1421714479126.00,-1.3862672,3.3659005,9.525742
1421714479145.00,-1.1331437,2.9623399,8.20384
1421714479165.00,-1.113235,3.3340168,8.745863
1421714479185.00,-2.1112096,4.0670424,10.513388
1421714479202.00,-1.5618521,3.3566198,9.937236
1421714479234.00,-0.9086105,2.7577152,9.466913
1421714479242.00,-0.6990463,3.063679,8.826245
1421714479289.00,-0.87118834,3.1222074,8.877589
1421714479290.00,-0.95725936,2.987188,9.51167
1421714479307.00,-1.1515553,3.1434631,9.940679
1421714479335.00,-1.1304492,3.1494508,9.70911
1421714479342.00,-0.9225316,3.0231135,9.439969
1421714479365.00,-0.8580158,3.1154714,9.482331
1421714479384.00,-1.0999128,3.05365,9.690548
1421714479403.00,-1.3721966,3.223846,9.597591
1421714479423.00,-1.1572435,3.2700999,9.406139
1421714479442.00,-1.111289,3.2641122,9.307495
1421714479466.00,-1.1121871,3.3422499,9.3050995
1421714479485.00,-1.291664,3.3566198,9.334589
1421714479503.00,-1.2289444,3.369493,9.34851
1421714479523.00,-1.096919,3.2415092,9.34327
1421714479543.00,-1.0689272,3.2201037,9.332343
1421714479562.00,-1.119971,3.195405,9.471554
1421714479587.00,-1.1909235,3.257077,9.493408
1421714479604.00,-1.1165282,3.181035,9.580228
1421714479622.00,-1.0722203,3.3470397,9.397758
1421714479674.00,-0.9662407,3.2117212,9.230854
1421714479676.00,-1.027613,3.2401621,9.337732
1421714479683.00,-1.1523038,3.2274384,9.177864
1421714479707.00,-1.2503499,3.304079,9.397758
1421714479743.00,-1.3274395,3.2973433,9.376351
1421714479745.00,-1.0627899,3.2626154,9.327553
1421714479773.00,-1.1859838,3.3739839,9.4684105
1421714479782.00,-1.2252022,3.3322206,9.472752
1421714479806.00,-1.1190729,3.354225,9.363628
1421714479842.00,-1.1280541,3.2500415,9.451645
1421714479844.00,-0.9991722,3.242108,9.2802515
1421714479872.00,-1.1162288,3.44793,9.318722
1421714479883.00,-1.1615845,3.404071,9.43518
1421714479908.00,-1.1114388,3.2061827,9.390123
1421714479941.00,-1.1529025,3.388204,9.39626
1421714479944.00,-1.2666659,3.4423914,9.3453665
1421714479962.00,-1.1064991,3.40467,9.433383
1421714479982.00,-1.1075468,3.2930021,9.300759
1421714480002.00,-1.1232642,3.2428565,9.30016
1421714480022.00,-1.0623409,3.2974927,9.344468
1421714480044.00,-1.1180251,3.2986903,9.457034
1421714480062.00,-1.0931767,3.3876054,9.549092
1421714480082.00,-0.99543,3.4757721,9.3381815
1421714480102.00,-1.0141411,3.422932,9.441017
1421714480122.00,-0.94139236,3.2256422,9.319171
1421714480144.00,-1.2166699,3.19795,9.238338
1421714480162.00,-1.2615765,3.3078213,9.289533
1421714480182.00,-1.4019846,3.3191977,9.307345
1421714480202.00,-1.4903009,3.5329533,9.421857
1421714480225.00,-1.4429992,3.5543587,9.397758
1421714480246.00,-1.3786331,3.5227745,9.215286
1421714480264.00,-1.2454102,3.5320551,8.308323
1421714480282.00,-1.7884809,3.8396654,9.464968
1421714480317.00,-1.6844472,3.6095939,9.81479
1421714480334.00,-1.3454022,3.524421,9.791439
1421714480343.00,-1.3295352,3.4925373,9.359587
1421714480384.00,-1.2045451,3.5817518,9.135802
1421714480385.00,-1.2786411,3.4476306,9.366772
1421714480407.00,-1.3139676,3.5353482,9.415121
1421714480427.00,-1.3371693,3.41904,9.536369
1421714480442.00,-1.2186159,3.4289196,9.474547
1421714480462.00,-1.4293776,3.174299,9.559272
1421714480483.00,-1.4471905,3.4073644,9.486373
1421714480502.00,-1.2748989,3.4669404,9.338779
1421714480522.00,-1.2317885,3.396886,9.178613
1421714480542.00,-1.2139755,3.382516,8.908276
1421714480567.00,-1.2867242,3.4976265,9.030122
1421714480583.00,-1.2840298,3.4473312,9.184301
1421714480607.00,-1.332529,3.4545164,9.270073
1421714480622.00,-1.1629317,3.4883459,9.407936
1421714480642.00,-1.206042,3.3950899,9.330098
1421714480662.00,-1.2157718,3.446433,9.27142
1421714480682.00,-1.1934682,3.3557217,9.38219
1421714480705.00,-1.3033397,3.554209,9.353001
1421714480723.00,-1.3768369,3.5211277,9.3823395
1421714480742.00,-1.3783337,3.5634897,9.315878
1421714480762.00,-1.269061,3.6333942,9.301059
1421714480783.00,-1.4208454,3.6182756,9.177266
1421714480804.00,-1.3635145,3.531157,9.197923
1421714480825.00,-1.311872,3.5844462,9.389974
1421714480845.00,-1.4057268,3.3702416,9.365574
1421714480863.00,-1.3846207,3.4200878,9.323811
1421714480882.00,-1.2078383,3.4301171,9.42066
1421714480902.00,-1.3545332,3.4307158,9.375903
1421714480923.00,-1.4660513,3.4407449,9.236543
1421714480942.00,-1.2124786,3.6175272,9.16589
1421714480962.00,-1.2626244,3.482059,9.05497
1421714480982.00,-1.22146,3.4612522,9.222622
1421714481002.00,-1.1529025,3.253185,9.295071
1421714481024.00,-1.1117381,3.3970358,9.471704
1421714481043.00,-1.1496093,3.2587235,9.454041
1421714481062.00,-1.0750644,3.4069152,9.625584
1421714481082.00,-0.98824495,3.2870147,9.532777
1421714481102.00,-1.0582993,3.3560212,9.564211
1421714481123.00,-1.0455757,3.3105156,9.544751
1421714481143.00,-0.8972342,3.1983988,9.292826
1421714481163.00,-1.0096505,3.369493,9.196875
1421714481183.00,-1.0165361,3.3480875,9.358688
1421714481205.00,-0.8634045,3.3452435,9.400152
1421714481225.00,-0.9153465,3.2025902,9.2609415
1421714481244.00,-1.1467652,3.353626,9.423504
1421714481266.00,-1.1424243,3.4256263,9.533375
1421714481284.00,-1.367107,3.416645,9.582922
1421714481304.00,-1.3370197,3.3929942,9.462273
1421714481324.00,-1.117127,3.2003448,9.401649
1421714481344.00,-1.2566369,3.2415092,9.338481
1421714481365.00,-1.1362871,3.4265244,9.45853
1421714481383.00,-1.2662169,3.4419425,9.502689
1421714481404.00,-1.0707234,3.254233,9.433982
1421714481423.00,-1.1624826,3.3718882,9.314231
1421714481446.00,-1.1762539,3.4596057,9.23295
1421714481462.00,-1.196911,3.6193235,9.55029
1421714481482.00,-1.1633807,3.7070413,9.535022
1421714481502.00,-1.3977933,3.8712497,9.564211
1421714481522.00,-1.2338841,3.6598892,9.474997
1421714481542.00,-1.0255175,3.4563127,9.302705
1421714481563.00,-1.0280621,3.5033147,9.124576
1421714481583.00,-0.891546,3.5510654,9.185648
1421714481603.00,-0.9136999,3.47682,9.135203
1421714481623.00,-0.9440868,3.4124537,9.215586
1421714481644.00,-0.91549623,3.4254768,9.398805
1421714481665.00,-1.1178753,3.5049615,9.228609
1421714481684.00,-1.0386901,3.674858,9.232651
1421714481705.00,-1.0416838,3.4858012,9.362431
1421714481727.00,-1.0514135,3.580105,9.573492
1421714481744.00,-0.8719368,3.357518,9.266331
1421714481767.00,-0.9313632,3.3449442,9.094638
1421714481784.00,-0.6978488,3.2501912,9.048234
1421714481807.00,-0.7557784,3.025209,9.041798
1421714481824.00,-1.0011182,3.2105236,9.320368
1421714481844.00,-0.9889934,3.4000297,9.66076
1421714481866.00,-1.0422826,3.6142342,9.746981
1421714481884.00,-1.1484119,3.566184,9.607471
1421714481903.00,-1.1264076,3.6742594,9.560918
1421714481925.00,-0.9648935,3.5170863,9.484427
1421714481944.00,-0.9241782,3.5208285,9.299861
1421714481964.00,-0.9207353,3.5329533,9.184601
1421714481985.00,-0.77972853,3.4278717,8.996292
1421714482005.00,-0.7753876,3.407514,8.878786
1421714482022.00,-0.8822653,3.6396813,9.186247
1421714482043.00,-0.8515791,3.518583,9.465716
1421714482063.00,-0.7084767,3.4091606,9.597741
1421714482083.00,-0.90277267,3.4476306,9.473649
1421714482105.00,-0.7827223,3.3335679,9.484577
1421714482122.00,-0.8012837,3.4567616,9.413774
1421714482143.00,-0.76101744,3.3394058,9.570797
1421714482163.00,-0.71820647,3.5899847,9.399553
1421714482183.00,-0.7300319,3.4087114,9.395212
1421714482204.00,-0.8095166,3.4374518,9.330398
1421714482253.00,-0.80472654,3.459456,9.245973
1421714482254.00,-0.8479866,3.5762131,9.299262
1421714482263.00,-0.7881111,3.3822167,9.320967
1421714482293.00,-0.9707314,3.470533,9.235345
1421714482328.00,-0.9662407,3.4564621,9.334439
1421714482335.00,-0.7671547,3.4956808,9.310938
1421714482342.00,-0.7553293,3.5366955,9.383238
1421714482385.00,-0.60519147,3.4236803,9.470955
1421714482386.00,-0.84199905,3.4473312,9.446856
1421714482426.00,-0.7705975,3.2663577,9.3839855
1421714482426.00,-0.855471,3.4003289,9.458382
1421714482445.00,-0.9400452,3.5289116,9.34836
1421714482479.00,-0.90726334,3.4929862,9.214539
1421714482486.00,-0.81266004,3.5211277,9.322464
1421714482523.00,-0.8428972,3.4925373,9.293574
1421714482525.00,-0.868494,3.3874557,9.562116
1421714482562.00,-0.93735075,3.3582664,9.566756
1421714482571.00,-0.78481793,3.4747243,9.507179
1421714482593.00,-0.87118834,3.4124537,9.507479
1421714482615.00,-0.95216995,3.5545084,9.379795
1421714482624.00,-0.9891431,3.4658926,9.544453
1421714482654.00,-1.0150392,3.6160305,9.36288
1421714482665.00,-1.1247611,3.7410204,9.439221
1421714482689.00,-1.2494518,3.6718643,9.174721
1421714482704.00,-0.99049026,3.6030076,9.594298
1421714482724.00,-0.7553293,3.2807276,10.125843
1421714482759.00,-0.40909928,2.6993368,9.486223
1421714482764.00,-0.69246,3.437751,9.291628
1421714482791.00,-0.8649014,3.533552,9.048683
1421714482802.00,-0.7339238,3.5414855,9.079968
1421714482841.00,-0.2588118,2.9951217,9.360934
1421714482842.00,-0.20776795,2.7301726,9.746532
1421714482876.00,-0.26764342,2.6560767,9.494307
1421714482883.00,-0.38185593,3.0984068,9.351204
1421714482909.00,-0.37646714,2.7731333,10.858719
1421714482923.00,-0.8532257,3.6577935,9.935888
1421714482942.00,-0.83795744,3.526816,9.876312
1421714482976.00,-0.73437285,3.3409026,9.590856
1421714482984.00,-0.1432521,3.3605118,8.86726
1421714483008.00,-0.83511335,3.7396734,8.808133
1421714483022.00,-1.0467732,3.5477724,9.474697
1421714483043.00,-1.1331437,3.2876134,10.105336
1421714483062.00,-1.1002121,3.455564,10.259216
1421714483082.00,-1.2419673,3.4151483,10.005643
1421714483106.00,-1.2510983,3.7175193,9.649085
1421714483131.00,-1.0100995,3.42862,9.913734
1421714483143.00,-0.53588563,3.023263,10.369686
1421714483163.00,-0.42556503,3.0466146,10.326277
1421714483182.00,-0.8014334,3.354225,10.144255
1421714483202.00,-1.1779006,3.792663,10.007889
1421714483225.00,-0.542921,3.5398388,10.500065
1421714483244.00,-0.2933899,4.113596,10.178084
1421714483264.00,0.2255809,3.4467325,8.50217
1421714483306.00,-0.16630417,4.002377,8.171207
1421714483308.00,-0.6779402,4.288582,9.047935
1421714483323.00,-0.43873763,4.151916,9.091943
1421714483342.00,-0.26240432,4.104764,9.017398
1421714483363.00,-0.49966094,4.3974056,8.599767
1421714483382.00,-0.78885955,4.747378,8.389903
1421714483403.00,-0.35401383,4.282744,8.424332
1421714483425.00,-0.66910857,4.356241,7.9544587
1421714483443.00,-0.7366182,4.0188427,8.599617
1421714483470.00,-1.0114467,4.3569894,9.004375
1421714483484.00,-1.2702584,4.631369,10.722652
1421714483502.00,-1.5021263,4.8018646,10.455458
1421714483522.00,-1.2786411,4.774621,8.955876
1421714483543.00,-0.8437953,4.4403663,8.778794
1421714483562.00,-0.80906755,4.5075765,8.934022
1421714483585.00,-0.8370593,4.859345,9.016051
1421714483602.00,-0.8705896,4.6660967,8.653954
1421714483627.00,-0.4236191,4.7609997,8.166119
1421714483646.00,-0.28351045,4.6393027,7.576794
1421714483662.00,-0.32542327,4.9014072,7.508536
1421714483683.00,-0.010029145,4.863686,7.80941
1421714483703.00,-0.044906616,5.079537,8.636291
1421714483722.00,-0.38260436,4.1516166,9.556726
1421714483747.00,-0.62734544,5.667065,8.6032095
1421714483782.00,0.14444962,5.735623,7.666308
1421714483783.00,0.676593,4.485123,7.582632
1421714483802.00,0.8901988,4.2222695,7.824978
1421714483822.00,0.22647904,5.1769843,7.859855
1421714483843.00,0.72269714,4.643943,8.4288225
1421714483865.00,0.8467891,4.1186852,7.923024
1421714483884.00,0.43709105,4.590803,7.4730597
1421714483902.00,0.1619632,5.5708156,7.305558
1421714483930.00,0.4236191,6.7139883,7.2602024
1421714483942.00,1.4160553,7.0027375,8.843011
1421714483962.00,1.9276913,10.183923,7.3708224
1421714483982.00,-0.3222798,12.652289,6.250103
1421714484003.00,-2.107318,12.054283,6.823261
1421714484022.00,-0.060474243,9.806108,9.159153
1421714484042.00,2.5622218,9.501941,8.524773
1421714484062.00,2.8270211,9.870923,6.525231
1421714484082.00,1.1630814,14.051879,3.8109252
1421714484104.00,0.86100954,11.362123,4.7385464
1421714484128.00,0.7259903,5.4271145,7.6260414
1421714484152.00,-2.840044,8.813822,12.903018
1421714484164.00,-1.2960049,9.633517,6.5994763
1421714484183.00,-0.5016069,7.3268137,9.390722
1421714484202.00,-0.45250902,5.1439033,9.925859
1421714484222.00,-0.026195526,5.4447775,9.091195
1421714484242.00,0.97597045,4.4069858,7.3573503
1421714484264.00,1.0008187,3.5054104,8.36745
1421714484301.00,0.19309846,3.137326,10.34364
1421714484304.00,0.26973906,3.1326857,10.444081
1421714484322.00,1.1603869,4.3397756,9.108858
1421714484342.00,1.2069402,4.441863,10.262509
1421714484362.00,2.1258793,5.7185583,7.3961196
1421714484383.00,3.5625916,3.1356792,9.645493
1421714484409.00,3.618575,2.5878186,13.860427
1421714484470.00,0.18516494,2.9639864,17.414936
1421714484471.00,-0.56372774,2.578987,17.187708
1421714484472.00,1.8098863,3.7637732,13.032648
1421714484489.00,3.2724948,5.9986258,8.251591
1421714484504.00,2.60159,7.2048173,5.0846267
1421714484522.00,2.4505541,7.243587,5.2182984
1421714484542.00,3.2660582,5.6770945,7.2519693
1421714484563.00,3.156037,4.441863,9.373208
1421714484583.00,2.4776478,5.392087,10.0996475
1421714484602.00,1.4572197,6.115832,9.360934
1421714484622.00,1.11563,6.0074573,9.266331
1421714484664.00,1.8414706,5.4982166,10.259515
1421714484665.00,2.8027716,5.3923864,12.260405
1421714484699.00,3.610492,5.401068,13.312118
1421714484709.00,4.737049,5.2721863,13.989459
1421714484754.00,3.1846275,4.2150846,12.001143
1421714484756.00,1.0359956,2.8473787,10.293195
1421714484803.00,1.1865824,4.50578,10.722952
1421714484803.00,1.8673668,6.118676,10.591974
1421714484804.00,1.8178198,6.1080484,9.696686
1421714484826.00,0.92118436,4.671635,8.730744
1421714484889.00,0.44996428,4.76549,8.235873
1421714484890.00,0.3477269,5.6817346,8.036039
1421714484891.00,0.015118561,5.8240886,7.221433
1421714484906.00,0.6962022,6.0064096,5.7237973
1421714484947.00,0.88286406,6.023474,6.0977197
1421714484950.00,1.2395723,5.373975,7.0006423
1421714484983.00,1.2650194,4.4906616,7.2633457
1421714484984.00,1.4317726,3.554658,8.096214
1421714485006.00,1.6759149,2.1218376,8.844956
1421714485033.00,2.6276357,1.1539503,9.705517
1421714485052.00,3.5655854,0.84858537,10.522818
1421714485063.00,2.6997857,1.9124231,7.9444294
1421714485083.00,2.1790187,2.5676107,7.043453
1421714485108.00,1.9847227,1.6136444,7.7902503
1421714485129.00,2.1269271,0.6391708,8.331824
1421714485143.00,2.1330643,0.7884105,7.6951976
1421714485162.00,2.6060805,1.2121793,6.986122
1421714485186.00,2.2499712,1.3790822,6.973099
1421714485221.00,2.3249652,1.2698094,7.7275305
1421714485224.00,2.493365,1.3828244,7.4756045
1421714485251.00,2.5486002,1.5036232,7.188052
1421714485269.00,2.384242,1.0972183,7.423363
1421714485296.00,2.74095,1.0523117,8.646021
1421714485306.00,3.27489,0.50744474,8.426427
1421714485323.00,3.509901,0.3302133,7.858658
1421714485343.00,2.8163934,0.6078859,7.556287
1421714485366.00,2.7433453,0.7735913,8.478668
1421714485383.00,2.5938063,0.9605525,8.978779
1421714485423.00,2.1362078,0.102836154,9.185798
1421714485425.00,1.5588584,0.41733214,9.170979
1421714485455.00,0.9298663,1.0129436,8.147707
1421714485470.00,0.27707383,0.96399534,9.1886425
1421714485483.00,-1.1008109,-0.26914033,10.6552925
1421714485503.00,-1.4934443,1.0383906,10.366543
1421714485523.00,-1.3626164,0.4061055,11.498488
1421714485543.00,-0.4656816,-0.28740233,12.246782
1421714485572.00,-0.4739145,-0.3001259,10.88237
1421714485585.00,-0.057929534,-1.3431569,10.898686
1421714485603.00,-0.18681152,-2.1748273,11.002121
1421714485623.00,-0.7955955,-1.8256036,11.401191
1421714485643.00,-1.1061996,-1.0092014,12.283157
1421714485663.00,-1.0850935,-0.77808195,12.744198
1421714485686.00,-0.7773335,0.101339266,11.90205
1421714485713.00,-0.6033952,0.5721103,10.700947
1421714485723.00,-0.81445634,0.9859996,10.207423
1421714485744.00,-0.41748184,0.8361612,10.754236
1421714485762.00,0.2481839,1.4346167,11.518397
1421714485784.00,0.91384965,2.180815,11.217523
1421714485807.00,0.626597,2.094744,10.646161
1421714485826.00,0.22468276,1.9461031,9.646989
1421714485846.00,-0.21674927,1.6798068,8.807684
1421714485863.00,-0.59695864,1.8556911,8.642428
1421714485887.00,-0.26704466,1.4715898,8.174052
1421714485903.00,0.5090913,1.1596385,8.162676
1421714485923.00,0.8864566,0.8449928,8.470436
1421714485944.00,0.5769003,0.61941195,8.66518
1421714485963.00,-0.19279908,0.10942245,8.450677
1421714485984.00,-0.48349458,-0.5879773,9.243728
1421714486005.00,-0.52121615,-0.88705534,9.411379
1421714486027.00,-0.28725266,-0.55669236,9.135952
1421714486049.00,0.22872436,-0.07095245,9.358539
1421714486065.00,0.07589218,0.28425887,9.195378
1421714486085.00,-0.03757187,0.5974077,9.1251745
1421714486103.00,-0.09430389,0.41089553,9.239985
1421714486124.00,0.023800507,0.10822494,9.310339
1421714486144.00,0.057929534,0.8038284,8.027507
1421714486165.00,-0.007334747,2.0619621,6.9897146
1421714486184.00,0.0916095,2.037114,7.498806
1421714486202.00,0.4647835,1.0240206,9.812245
1421714486223.00,0.5252577,1.1912228,10.02645
1421714486242.00,0.56088364,2.1644988,9.143736
1421714486262.00,0.83571213,2.7430458,9.071586
1421714486283.00,0.6300398,2.6441016,10.172546
1421714486303.00,0.106728055,1.3597723,12.178525
1421714486324.00,-0.25701553,0.31105316,12.378359
1421714486347.00,-0.16570541,-0.085322574,12.405752
1421714486369.00,-0.100291446,-0.7161108,11.584859
1421714486393.00,-0.56881714,-1.1734099,11.071426
1421714486403.00,-0.8243358,-1.6425344,11.547886
1421714486425.00,-0.7180568,-1.9139199,12.907359
1421714486442.00,-0.6459068,-1.6485219,12.626244
1421714486462.00,-0.7652087,-1.518143,11.767928
1421714486483.00,-0.39787263,-1.4482384,11.004216
1421714486502.00,0.1607657,-1.332978,11.643837
1421714486523.00,0.35356477,-0.9147478,11.945909
1421714486543.00,0.20971389,-1.0008187,11.534115
1421714486574.00,0.4261638,-0.59920394,10.715018
1421714486584.00,0.4513115,-0.47047165,10.4252205
1421714486603.00,0.3968248,-0.42496628,10.244845
1421714486623.00,0.1965413,-0.6008505,9.93978
1421714486644.00,0.47196853,-0.6951544,9.7216835
1421714486663.00,0.3956273,-0.41329056,9.28115
1421714486683.00,0.2532733,-0.041763153,8.484057
1421714486703.00,0.2161505,0.24399261,7.912396
1421714486724.00,0.11600876,0.2612068,7.984696
1421714486744.00,-0.015118561,0.27901977,8.121511
1421714486762.00,-0.042810973,0.42691222,8.273894
1421714486783.00,0.045954436,0.6474037,8.236622
1421714486802.00,0.18291962,0.64126647,8.402028
1421714486822.00,0.69829786,0.89738387,8.281828
1421714486844.00,0.81191164,1.2278966,8.376431
1421714486863.00,0.8677455,1.323847,8.648565
1421714486883.00,0.49202684,1.022823,8.912466
1421714486902.00,0.38544846,1.1237133,8.690628
1421714486923.00,0.6709049,1.2066407,8.715476
1421714486942.00,1.079106,1.8495538,8.72296
1421714486966.00,1.3040881,1.631158,9.130862
1421714486983.00,1.3003459,1.2775933,9.775722
1421714487004.00,0.70428544,1.0283616,9.634564
1421714487023.00,0.42676255,1.0190808,9.721534
1421714487042.00,0.55669236,1.2338841,9.572294
1421714487063.00,0.6251001,1.2855268,9.623188
1421714487083.00,0.42796004,1.2557387,9.859996
1421714487103.00,0.2161505,1.0439291,10.053992
1421714487122.00,0.14265335,1.0171349,9.948612
1421714487143.00,0.39323226,1.185385,9.847423
1421714487165.00,0.8699908,1.0981164,10.025103
1421714487185.00,0.8509804,1.0150392,9.94487
1421714487206.00,0.32901582,0.97342575,9.678574
1421714487223.00,-0.13397141,0.99557966,9.241781
1421714487242.00,-0.8294252,0.9144484,9.835298
1421714487264.00,-1.0714718,0.368833,10.316546
1421714487283.00,-0.90157515,0.6252498,9.952653
1421714487303.00,-0.6768924,1.1343411,9.481283
1421714487323.00,-0.55654263,0.9903406,9.483679
1421714487343.00,-0.55639297,0.7234456,9.75746
1421714487363.00,-0.64321244,0.09280701,10.06971
1421714487383.00,-0.62569886,0.25102797,9.871372
1421714487403.00,-0.7171587,0.67135394,9.570947
1421714487422.00,-0.8544232,0.90561676,9.528136
1421714487444.00,-1.0350975,0.9830058,9.875114
1421714487462.00,-1.3184582,0.7905061,10.071207
1421714487486.00,-1.699416,0.90217394,10.022109
1421714487513.00,-1.5170952,1.3659096,9.446856
1421714487522.00,-1.0102491,1.3913567,9.561367
1421714487542.00,-1.0948234,1.2778926,9.969568
1421714487563.00,-1.5738273,0.97058165,9.696536
1421714487583.00,-1.8823357,0.89932984,9.750125
1421714487602.00,-1.8016534,0.89513856,10.070908
1421714487623.00,-1.5287709,0.8455916,10.403965
1421714487644.00,-1.2235556,1.0096505,10.486593
1421714487662.00,-1.1654763,1.2403207,10.20443
1421714487684.00,-1.104104,1.1328442,10.227332
1421714487703.00,-1.169967,1.2261003,10.076745
1421714487723.00,-1.1355386,1.207539,9.602531
1421714487743.00,-0.9122031,1.2491524,9.544303
1421714487765.00,-0.72928345,1.2588822,9.553883
1421714487783.00,-0.685724,1.4241385,9.52634
1421714487803.00,-0.87777466,1.1852353,9.519753
1421714487823.00,-1.0683284,1.1925701,9.559272
1421714487844.00,-0.9548643,1.0806029,9.609267
1421714487863.00,-0.7140152,1.167123,9.791289
1421714487884.00,-0.64860123,0.9831555,9.979897
1421714487903.00,-0.51298326,0.7541318,10.397229
1421714487923.00,-0.44367737,0.26255402,10.794652
1421714487943.00,-0.5249584,0.39248383,10.553803
1421714487963.00,-0.78227323,0.23306534,10.351125
1421714487985.00,-1.1822416,0.6993457,10.017768
1421714488009.00,-1.0635383,0.055684205,10.272089
1421714488023.00,-0.8053253,-0.042511597,10.4592
1421714488043.00,-0.31734008,0.2522255,10.318193
1421714488063.00,-0.11960129,0.88316345,9.92047
1421714488083.00,0.44277924,0.9976753,9.485924
1421714488102.00,0.75308394,1.2983999,9.320817
1421714488122.00,0.8509804,1.3389657,9.337583
1421714488146.00,1.0479708,1.0946736,9.448352
1421714488166.00,1.269061,1.2983999,9.130563
1421714488184.00,1.029559,1.7577946,8.766071
1421714488204.00,0.7750882,1.5895445,8.99255
1421714488223.00,0.7921527,0.06870712,10.768008
1421714488243.00,1.7220191,-0.4950206,11.282039
1421714488263.00,3.1165192,1.0053095,11.133248
1421714488283.00,2.4580386,1.5302678,8.987909
1421714488304.00,2.112557,1.8321899,8.873997
1421714488326.00,1.5465839,0.24893235,11.211985
1421714488343.00,0.67704207,-0.4234694,11.228749
1421714488363.00,0.7521858,0.5275031,9.708362
1421714488383.00,0.64830184,0.6502478,9.277707
1421714488403.00,0.93121356,0.83945435,9.355246
1421714488423.00,0.9595047,0.9750723,9.229358
1421714488443.00,1.2102333,1.2265494,9.49266
1421714488463.00,1.1232642,1.1994557,9.683513
1421714488483.00,1.3742921,1.0994637,9.743987
1421714488503.00,1.5161971,1.02911,9.95415
1421714488523.00,1.0876383,1.0222243,9.682915
1421714488543.00,0.7445517,0.7614665,9.953252
1421714488563.00,1.0696756,0.52091676,10.070758
1421714488583.00,1.0927277,0.47196853,10.259216
1421714488603.00,0.8734337,0.27812165,10.053843
1421714488622.00,0.4950206,0.89259386,10.192005
1421714488646.00,0.6822812,1.3127701,9.917926
1421714488669.00,0.66671354,1.2033477,10.101444
1421714488683.00,0.1074765,0.9607022,9.975256
1421714488707.00,-0.13846207,0.9375005,9.714948
1421714488725.00,-0.11301498,1.3067825,9.890083
1421714488743.00,-0.1857637,0.9818083,9.864786
1421714488832.00,0.012124786,1.1841874,9.813293
1421714488833.00,-0.14759308,0.9967772,10.154733
1421714488835.00,-0.26285338,1.3175601,9.870624
1421714488836.00,-0.09116043,1.4618601,9.703122
1421714488871.00,-0.19309846,1.2407699,10.265503
1421714488874.00,-0.7140152,0.5960605,10.374776
1421714488886.00,-0.7810757,0.78227323,10.806627
1421714488953.00,-0.6887178,1.1484119,10.667566
1421714488954.00,-0.80337936,1.2807367,9.990674
1421714488955.00,-1.1752062,1.6356486,9.427396
1421714488964.00,-1.1222163,1.5709832,9.792336
1421714488983.00,-0.55295014,2.0270846,9.405392
1421714489003.00,0.100291446,2.436184,9.445508
1421714489026.00,-0.17977615,2.0953426,9.103768
1421714489055.00,-0.88705534,1.6569045,9.51197
1421714489064.00,-0.9915381,1.3620176,10.493179
1421714489138.00,-0.3543132,1.6673827,10.114916
1421714489139.00,-0.13262421,1.988465,9.837393
1421714489140.00,-0.674198,1.8588345,9.384884
1421714489147.00,-1.129551,1.2211605,9.748628
1421714489311.00,-0.86355424,1.1886781,10.873688
1421714489312.00,-0.7595206,1.9853215,10.073602
1421714489316.00,-0.6251001,1.9143691,9.483679
1421714489317.00,-0.6917116,1.8139279,9.060808
1421714489319.00,-0.79963714,1.9107765,9.205557
1421714489322.00,-1.0958711,1.4708414,9.774524
1421714489323.00,-1.0253677,1.3217514,10.086326
1421714489324.00,-1.0523117,1.3750405,9.899065
1421714489326.00,-0.97911394,1.5343094,9.972861
1421714489358.00,-1.2750485,1.4739848,10.023457
1421714489366.00,-1.1320958,1.4319223,10.152787
1421714489396.00,-0.7379654,1.699416,9.591005
1421714489403.00,-0.6408174,1.7296531,9.441466
1421714489423.00,-0.5394781,1.6542101,9.55029
1421714489443.00,-0.93660235,1.6646882,9.802666
1421714489463.00,-1.2638218,1.5858023,10.063872
1421714489483.00,-0.8966354,1.6557069,10.18482
1421714489504.00,-0.7550299,1.6610957,9.690249
1421714489565.00,-0.7382648,1.8723065,9.310339
1421714489566.00,-0.67644334,1.7714163,9.874815
1421714489567.00,-0.47331575,1.963018,9.658665
1421714489600.00,-0.31494507,1.8961071,9.672436
1421714489606.00,-0.2880011,2.3974144,9.265432
1421714489637.00,-0.4646338,2.032623,9.356144
1421714489643.00,-0.7879614,2.5056396,9.852811
1421714489663.00,-0.73721695,2.5286915,9.873917
1421714489683.00,-0.61686724,2.3682253,9.890083
1421714489703.00,-0.54322034,2.561174,9.799372
1421714489724.00,-0.48603928,2.285597,9.447903
1421714489743.00,-0.5480104,2.262096,9.608519
1421714489816.00,-0.53528684,2.057172,10.153236
1421714489817.00,-0.5423222,2.0472927,10.195299
1421714489825.00,-0.3713777,2.3155348,9.748777
1421714489827.00,-0.5701643,2.6604176,9.448202
1421714489865.00,-0.7167096,2.5599766,9.64624
1421714489866.00,-0.35521135,2.7312205,9.3067465
1421714489888.00,-0.085472256,2.5403674,9.44925
1421714489903.00,-0.39981857,2.4983048,9.638456
1421714489924.00,-0.32347733,2.1725821,9.379046
1421714489961.00,-0.21210891,2.0338206,9.677226
1421714489967.00,-0.40924895,1.7881814,9.749376
1421714489983.00,-0.54337007,1.8769469,10.255623
1421714490003.00,-0.57001466,2.145189,9.682466
1421714490024.00,-0.8580158,2.3333478,9.530082
1421714490044.00,-0.7481442,1.7363892,9.941426
1421714490063.00,-0.11585907,1.8012043,10.691667
1421714490172.00,0.017663268,2.4860303,10.129436
1421714490173.00,-0.5719606,2.311643,9.130563
1421714490174.00,-0.9065149,1.7934206,9.854308
1421714490175.00,-1.1892769,1.7149837,10.730287
1421714490176.00,-1.1879296,1.3222004,10.5289545
1421714490207.00,-1.1606864,1.0647359,10.041419
1421714490213.00,-1.1669732,1.201701,9.7139
1421714490223.00,-0.8219408,1.6124469,9.41093
1421714490244.00,0.08652008,1.6025674,9.580228
1421714490266.00,0.34518218,1.581162,9.54535
1421714490303.00,0.3598517,1.1811937,9.183253
1421714490304.00,0.76416093,0.14774276,9.603879
1421714490323.00,1.3326787,0.33275804,9.503139
1421714490343.00,2.4812403,-0.10657837,9.399703
1421714490363.00,3.2751892,0.62839323,9.515712
1421714490383.00,2.3604414,0.6725514,9.112451
1421714490408.00,2.2531147,0.019309845,7.522607
1421714490495.00,1.8341359,-0.082777865,7.6592727
1421714490496.00,1.434916,-0.25282425,7.9935274
1421714490498.00,1.0353969,1.4802718,4.5141625
1421714490498.00,2.079775,1.2820839,3.3941917
1421714490519.00,2.6851163,1.0653347,3.6088455
1421714490523.00,2.4695644,-0.049846344,4.798272
1421714490544.00,4.2152343,-0.3555107,4.7623467
1421714490563.00,5.690866,0.6568341,3.1063404
1421714490606.00,5.8983345,-0.23141876,5.0850754
1421714490607.00,4.467759,-1.9968475,7.5353303
1421714490623.00,4.399801,-2.6575735,8.503218
1421714490643.00,5.7794814,-1.5477813,9.953402
1421714490663.00,5.677394,-1.8787432,10.570269
1421714490684.00,6.022576,-2.823728,11.843222
1421714490703.00,8.537497,-2.5962012,11.119178
1421714490723.00,11.69009,-1.5245796,8.745114
1421714490745.00,12.693753,-1.1996055,7.8535686
1421714490821.00,12.039314,-1.737437,8.528365
1421714490828.00,10.93012,-1.7549505,8.780142
1421714490828.00,11.001971,-1.0889854,7.803722
1421714490831.00,10.902728,-1.3030403,7.283404
1421714490853.00,10.19485,-1.9220031,6.8563423
1421714490863.00,9.136849,-2.4840844,6.4479914
1421714490883.00,8.494985,-2.3451731,6.855294
1421714490909.00,8.165819,-1.6344512,7.7357635
1421714490925.00,8.014783,-1.6310083,7.7939925
1421714490944.00,7.5321865,-1.8758991,7.139703
1421714490963.00,7.570507,-2.387086,7.0798273
1421714490983.00,8.549321,-2.1085153,6.800209
1421714491004.00,9.222622,-1.9740949,6.0507174
1421714491023.00,9.2907295,-1.7200731,6.0261683
1421714491043.00,8.818163,-2.0541782,5.654192
1421714491119.00,9.642348,-2.1246817,5.632188
1421714491121.00,9.926159,-1.375789,5.637427
1421714491123.00,9.183702,-1.7363892,5.3356543
1421714491126.00,8.0563965,-1.9342777,3.613336
1421714491177.00,8.286768,-1.7696201,3.3290772
1421714491179.00,8.657098,-2.1838088,3.3805702
1421714491191.00,7.026987,-2.927163,0.932411
1421714491203.00,3.921096,-3.1217582,-0.0504451
1421714491223.00,4.5469446,-4.27032,0.68752027
1421714491249.00,8.296198,-4.300707,2.5536895
1421714491263.00,8.450377,-3.4361045,-2.718347
1421714491283.00,4.354894,-2.355801,-7.08342
1421714491303.00,0.8086185,-3.3178506,-4.397106
1421714491323.00,1.1288027,-5.0913625,-3.3033307
1421714491343.00,8.452622,-7.8716807,-4.6301713
1421714491364.00,9.730815,-5.936954,1.5416441
1421714491438.00,6.4464946,1.3121713,2.2020707
1421714491439.00,11.2446165,-5.262457,-0.19549347
1421714491440.00,7.547006,-9.187295,-0.7711963
1421714491465.00,6.0972705,-8.556656,-0.11690689
1421714491466.00,4.59724,-12.738061,-3.2156131
1421714491484.00,3.9748342,-10.383008,-1.3946499
1421714491503.00,5.3902907,-10.158924,-0.13352233
1421714491523.00,6.4849644,-10.041269,-0.015567627
1421714491543.00,6.056256,-9.297017,0.25012985
1421714491563.00,6.1161313,-9.703871,0.32841706
1421714491584.00,6.6803083,-6.422993,0.8653505
1421714491606.00,5.787415,-5.0662146,-2.3400838
1421714491624.00,3.8883142,-7.9629908,-2.06301
1421714491644.00,5.206473,-8.567135,-0.7668553
1421714491663.00,5.460046,-7.587871,-0.75278455
1421714491683.00,4.442462,-7.0211496,-1.5718813
1421714491755.00,3.7203634,-9.085956,-1.8193167
1421714491756.00,5.2648516,-7.5510473,-1.0008187
1421714491756.00,5.6332355,-7.6519375,-1.2037967
1421714491778.00,4.613406,-8.323142,-1.4539266
1421714491783.00,3.9489381,-7.979307,-1.289269
1421714491803.00,5.562732,-7.9179344,-1.421444
1421714491823.00,6.1674747,-4.8312035,-2.2168899
1421714491843.00,5.963898,-5.342091,-3.2121704
1421714491864.00,3.4367034,-7.1605096,-2.9388387
1421714491885.00,2.634821,-9.979597,-1.3332775
1421714491903.00,2.8635452,-10.153536,-0.93076444
1421714491925.00,2.8255243,-10.6922655,-1.8027012
1421714491943.00,2.728526,-9.177566,-2.0628603
1421714491971.00,0.52765274,-1.5832576,-1.9217038
1421714491993.00,0.88989943,2.1791685,-3.898493
1421714492003.00,3.815715,-8.1932125,-2.0776794
1421714492023.00,4.6999264,-14.206657,4.307742
1421714492084.00,-1.8006057,-1.9646645,-0.646805
1421714492085.00,-0.58588165,-6.1111917,1.8947598
1421714492086.00,4.245771,-14.616804,-1.5000306
1421714492112.00,1.5492783,-12.448712,-4.4053392
1421714492123.00,0.1857637,-14.321468,-0.76475966
1421714492144.00,1.393602,-13.707146,-1.7577946
1421714492163.00,0.78406954,-6.306685,-2.2709277
1421714492183.00,-0.14280304,-5.224286,-1.1759546
1421714492206.00,-1.0985656,-7.940238,-2.2852976
1421714492229.00,-0.5867798,-8.216264,-1.959126
1421714492243.00,-0.8412506,-6.5306196,-3.5345998
1421714492263.00,-1.26951,-5.1581235,1.4557228
1421714492284.00,-0.35266662,-4.603976,4.815336
1421714492306.00,-0.62225604,-4.2388854,-0.15388
1421714492427.00,-0.8517288,-4.372707,-1.2519965
1421714492428.00,-0.95216995,-4.531227,0.4445755
1421714492429.00,-0.9789642,-3.4449363,0.93121356
1421714492430.00,-13.804144,-16.168777,3.6794984
1421714492431.00,-4.14533,-19.117046,3.3850608
1421714492432.00,0.30476624,-7.9555063,-5.035379
1421714492447.00,-3.184927,-9.129664,-4.133804
1421714492475.00,-5.2751803,-9.661658,-0.60324556
1421714492552.00,-3.9748342,-8.12675,1.6384927
1421714492553.00,-4.4643164,-8.305927,1.187331
1421714492554.00,-3.8296363,-8.839269,0.044008482
1421714492555.00,-3.1735506,-9.22292,-0.5839357
1421714492591.00,-3.3576677,-9.175619,-0.052391052
1421714492591.00,-3.7025504,-9.241183,0.27243346
1421714492626.00,-3.7158728,-9.116193,0.2520758
1421714492626.00,-3.6151323,-9.121283,0.20522323
1421714492644.00,-3.5699263,-8.994347,0.18097366
1421714492664.00,-3.7476068,-9.0832615,0.1965413
1421714492726.00,-3.816763,-9.214389,0.43200165
1421714492727.00,-3.7380266,-9.219478,0.12049942
1421714492728.00,-3.7752993,-9.26199,0.13382171
1421714492751.00,-3.7841308,-9.326805,0.30371842
1421714492763.00,-3.9290295,-9.143137,0.24938141
1421714492783.00,-3.898493,-9.071885,0.30057496
1421714492804.00,-3.8872664,-9.012908,0.49202684
1421714492825.00,-3.9433997,-8.999435,0.50250506
1421714492845.00,-4.079467,-9.020542,0.46538222
1421714492874.00,-3.8949006,-9.080866,0.48094985
1421714492885.00,-3.700904,-8.985365,0.53813094
1421714492904.00,-3.8498442,-9.175619,0.468376
1421714492924.00,-3.8288877,-8.987909,0.4035608
1421714492943.00,-3.8425095,-9.06006,0.5816904
1421714492963.00,-3.9740858,-8.9927,0.5499564
1421714492983.00,-3.940855,-8.972491,0.51268387
1421714493003.00,-3.9356158,-8.8388195,0.66940796
1421714493072.00,-3.9438486,-8.9409075,0.53393966
1421714493073.00,-3.8449044,-8.993748,0.47690827
1421714493075.00,-3.7796402,-9.137149,0.5325925
1421714493121.00,-3.8954992,-8.971893,0.48903304
1421714493126.00,-3.8681061,-8.799751,0.6141728
1421714493127.00,-3.7531452,-8.922795,0.5162764
1421714493144.00,-3.9013371,-8.96381,0.58184004
1421714493172.00,-3.695665,-9.028325,0.3860472
1421714493196.00,-3.960614,-9.135203,0.52061737
1421714493203.00,-3.874543,-9.138796,0.39742357
1421714493224.00,-3.8005967,-9.15601,0.38125718
1421714493244.00,-3.8556821,-8.966055,0.5959108
1421714493264.00,-3.9034328,-8.98776,0.68587375
1421714493283.00,-3.9930964,-9.05961,0.65174466
1421714493307.00,-3.9893541,-8.971594,0.6189629
1421714493323.00,-3.8763392,-9.088799,0.4840933
1421714493344.00,-3.8986428,-9.017398,0.5598358
1421714493410.00,-3.7669168,-9.086704,0.54606444
1421714493411.00,-3.7459602,-9.188493,0.52630556
1421714493412.00,-3.9200482,-9.075777,0.540526
1421714493441.00,-3.956722,-9.051976,0.48080018
1421714493444.00,-3.7256026,-8.962013,0.506846
1421714493464.00,-3.6718643,-9.097482,0.58558226
1421714493484.00,-3.709586,-8.995843,0.669857
1421714493515.00,-3.8490958,-9.077723,0.52076703
1421714493523.00,-3.7844303,-9.115744,0.41089553
1421714493548.00,-3.8990917,-9.0623045,0.55549484
1421714493564.00,-3.8935533,-8.929681,0.6712042
1421714493585.00,-3.7164717,-9.022188,0.70293826
1421714493604.00,-3.7094362,-9.007968,0.7893086
1421714493624.00,-3.8206549,-8.946146,0.7818242
1421714493644.00,-3.7649708,-9.00213,0.6367758
1421714493664.00,-3.9041812,-8.968599,0.5842351
1421714493722.00,-3.7833824,-9.058413,0.5752537
1421714493723.00,-3.8875659,-9.023536,0.5876779
1421714493724.00,-3.8377194,-9.132809,0.5402266
1421714493759.00,-3.8805304,-9.100326,0.63932055
1421714493764.00,-3.9025347,-9.097182,0.7084767
1421714493784.00,-3.8035903,-9.094788,0.6078859
1421714493813.00,-3.8709502,-8.915909,0.62450135
1421714493825.00,-3.8815782,-9.068592,0.5933661
1421714493862.00,-3.6727624,-9.198671,0.6893166
1421714493865.00,-3.7405715,-9.058562,0.6816824
1421714493889.00,-3.59208,-9.097781,0.8901988
1421714493903.00,-3.6348913,-8.977282,0.7240443
1421714493924.00,-3.708538,-9.012309,0.7899074
1421714493943.00,-3.8366716,-8.964409,0.800685
1421714493963.00,-3.8718483,-8.964558,0.7728429
1421714493984.00,-3.7519479,-8.987161,0.76416093
1421714494058.00,-3.8203554,-9.114995,0.93660235
1421714494059.00,-3.873495,-9.007369,0.69859725
1421714494061.00,-3.79895,-9.032666,0.69246
1421714494086.00,-3.7678149,-8.977282,0.78691363
1421714494087.00,-3.756139,-9.024882,0.7810757
1421714494104.00,-3.7986507,-9.091943,0.81535447
1421714494124.00,-3.6910245,-9.150621,0.705932
1421714494143.00,-3.6582427,-9.038804,0.5647755
1421714494164.00,-3.6944673,-9.144334,0.7393126
1421714494183.00,-3.787424,-9.168584,0.667462
1421714494212.00,-3.7396734,-9.186846,0.6420149
1421714494224.00,-3.7889209,-9.100475,0.73347473
1421714494244.00,-3.800447,-9.082363,0.843945
1421714494263.00,-3.913462,-8.991352,0.83182025
1421714494283.00,-3.8544846,-8.971444,0.8045769
1421714494303.00,-3.705245,-9.104517,0.80936694
1421714494373.00,-3.7067418,-9.182055,0.7695497
1421714494374.00,-3.853886,-9.036408,0.8901988
1421714494375.00,-3.9101686,-8.902138,0.7256909
1421714494413.00,-3.7491038,-8.956475,0.80218184
1421714494415.00,-3.8841228,-9.053773,0.8940907
1421714494426.00,-3.8651125,-8.916208,0.8631052
1421714494444.00,-3.9392083,-9.033415,0.7882608
1421714494466.00,-3.9540277,-9.061108,0.8490344
1421714494501.00,-3.7934115,-8.9690485,0.83346677
1421714494504.00,-3.7920644,-8.932375,0.9663904
1421714494524.00,-3.8589752,-8.968001,0.9012758
1421714494544.00,-3.9113662,-9.056916,0.8599617
1421714494563.00,-3.8470001,-9.067394,0.7792795
1421714494583.00,-3.7583845,-8.953331,0.92208254
1421714494603.00,-3.7086878,-8.997939,0.98480207
1421714494623.00,-3.6323464,-9.090297,0.91010743
1421714494644.00,-3.7227585,-8.9795265,0.9595047
1421714494711.00,-3.7073405,-9.129964,0.86984116
1421714494712.00,-3.701353,-9.070388,0.9193881
1421714494713.00,-3.6359391,-9.126222,0.85277665
1421714494735.00,-3.6501594,-8.847202,1.0267149
1421714494743.00,-3.8634658,-9.109906,0.91265213
1421714494764.00,-3.6847374,-9.173075,1.0922786
1421714494783.00,-3.7544925,-9.136251,1.0196795
1421714494804.00,-3.7657192,-9.265432,1.1232642
1421714494825.00,-3.7142262,-9.161249,0.9108559
1421714494844.00,-3.8344262,-8.984766,0.83152086
1421714494863.00,-3.8077817,-8.980575,0.94169176
1421714494885.00,-3.7880228,-9.037157,0.9114546
1421714494904.00,-3.513793,-9.039253,1.0847942
1421714494924.00,-3.531606,-8.954379,1.1623329
1421714494944.00,-3.750002,-9.1395445,1.2247531
1421714494963.00,-3.7377274,-9.06006,1.0823991
1421714495032.00,-3.6547997,-9.087752,1.0312057
1421714495034.00,-3.6101925,-8.999435,1.1126362
1421714495035.00,-3.7080889,-8.853788,1.1241623
1421714495061.00,-3.622467,-8.80993,1.3199551
1421714495064.00,-3.4006283,-8.851993,1.1099418
1421714495085.00,-3.2961457,-8.966804,1.3712983
1421714495104.00,-3.1587315,-9.21364,1.2939093
1421714495124.00,-3.0668225,-9.303603,1.5910414
1421714495165.00,-2.8798614,-9.515113,1.5329622
1421714495167.00,-2.4733067,-9.55987,1.4194981
1421714495183.00,-2.2261705,-9.423953,1.4374608
1421714495203.00,-2.089505,-9.3663225,1.6200811
1421714495224.00,-2.730023,-9.544751,1.3925542
1421714495244.00,-3.5190322,-9.340726,1.2909155
1421714495263.00,-3.6941679,-9.307795,1.300795
1421714495361.00,-3.8941522,-9.134006,1.0617421
1421714495362.00,-4.0151005,-8.919053,1.1523038
1421714495363.00,-3.9014869,-8.829988,1.2108321
1421714495364.00,-3.4254768,-8.93462,1.4169534
1421714495364.00,-2.8277695,-8.883127,1.5690372
1421714495396.00,-2.2285657,-9.202713,1.8556911
1421714495404.00,-1.7589922,-9.484726,1.819167
1421714495424.00,-1.5877483,-9.508227,1.7974621
1421714495444.00,-2.0984862,-9.581725,1.434467
1421714495463.00,-2.689158,-9.368717,1.3706996
1421714495485.00,-3.292104,-9.364527,1.5072157
1421714495503.00,-3.691773,-9.092392,1.3362712
1421714495524.00,-3.7824843,-9.219777,0.64919996
1421714495545.00,-3.3735347,-9.362131,0.0676593
1421714495563.00,-3.3446448,-9.398805,0.21450394
1421714495584.00,-3.0313463,-9.515712,0.44412643
1421714495663.00,-2.646796,-9.837543,0.7300319
1421714495664.00,-2.4864793,-10.401271,0.67764086
1421714495665.00,-2.2454805,-10.334659,0.4857399
1421714495666.00,-2.2421873,-9.961185,0.5959108
1421714495690.00,-2.689158,-9.434731,0.45565248
1421714495709.00,-3.3569193,-8.48286,-0.15762222
1421714495724.00,-3.836073,-8.183183,-0.81535447
1421714495744.00,-4.4834766,-9.022488,-1.547033
1421714495764.00,-5.018464,-10.8418045,-2.463577
1421714495788.00,-5.02999,-11.672876,-2.2540128
1421714495806.00,-4.8771577,-11.770024,-2.630929
1421714495835.00,-4.1857457,-11.919114,-2.26973
1421714495843.00,-4.018244,-11.323353,-0.6568341
1421714495864.00,-4.628375,-9.871971,1.7899777
1421714495885.00,-5.0846267,-9.061855,2.3555017
1421714495904.00,-4.85695,-8.360864,1.7977616
1421714495925.00,-4.4773393,-8.541687,0.45161086
1421714495945.00,-4.143683,-8.713381,-0.24234603
1421714496011.00,-4.162544,-8.209528,-0.7940987
1421714496012.00,-4.1580534,-7.583979,-0.9422905
1421714496013.00,-3.9972875,-7.1879025,-0.569865
1421714496039.00,-4.3547444,-7.016958,-0.2377057
1421714496046.00,-4.2050557,-6.829997,-0.00943039
1421714496063.00,-3.9688468,-6.966663,-0.2269281
1421714496084.00,-3.450325,-7.0784802,-1.1645782
1421714496103.00,-2.9304562,-7.0886593,-2.170187
1421714496123.00,-2.2180874,-6.8879266,-2.8942313
1421714496149.00,-2.5691075,-7.449409,-3.359913
1421714496165.00,-2.5978477,-8.724158,-2.8442354
1421714496184.00,-1.8709593,-10.005194,-3.035388
1421714496204.00,-1.5368541,-10.369387,-3.3648527
1421714496225.00,-2.3882835,-8.888966,-3.1494508
1421714496247.00,-2.8364515,-7.3844438,-3.0171258
1421714496312.00,-3.0600865,-7.4970098,-1.9344274
1421714496313.00,-4.4964995,-9.711355,-0.41613466
1421714496314.00,-5.778434,-13.904585,1.2231065
1421714496337.00,-3.8624182,-13.55147,1.3768369
1421714496344.00,-2.3623874,-10.775193,-2.7075696
1421714496366.00,-2.535128,-8.683891,-2.6605673
1421714496383.00,-3.5899847,-6.301446,1.825454
1421714496404.00,-4.2499623,-6.9148703,4.1785607
1421714496425.00,-4.473148,-8.937914,2.545307
1421714496443.00,-4.1757164,-10.28122,-0.011526031
1421714496498.00,-2.9235704,-10.302476,-0.13876145
1421714496498.00,-1.9520906,-10.290501,0.83541274
1421714496518.00,-1.5043716,-9.76644,0.9595047
1421714496524.00,-1.9996916,-9.887539,1.5072157
1421714496544.00,-3.0298493,-9.748927,1.9332298
1421714496568.00,-3.3048277,-9.381741,1.2418176
1421714496583.00,-3.0412257,-9.217233,0.5721103
1421714496604.00,-2.7605593,-9.094338,0.10103989
1421714496661.00,-2.3300545,-9.342073,-0.30581406
1421714496662.00,-1.6100519,-9.459728,-0.38080812
1421714496685.00,-1.4359639,-9.675879,0.14145584
1421714496688.00,-1.911525,-9.69953,0.21719833
1421714496704.00,-1.9646645,-9.753268,-0.48469207
1421714496724.00,-1.9386187,-9.456136,-2.0883074
1421714496744.00,-1.9562819,-9.045839,-3.4025743
1421714496764.00,-1.9868184,-8.380921,-4.6927414
1421714496784.00,-1.9312838,-7.856113,-3.1966026
1421714496804.00,-2.5613236,-7.901319,-0.15163468
1421714496825.00,-2.7032287,-8.014483,0.55384827
1421714496859.00,-2.2665865,-7.835456,0.032632142
1421714496864.00,-1.8396744,-7.567663,-0.15747254
1421714496884.00,-1.5796651,-7.0575237,-0.1910028
1421714496905.00,-1.9235001,-7.628736,-0.061072998
1421714496975.00,-2.0362158,-8.274942,-2.76505
1421714496976.00,-2.2574556,-8.1126795,-0.14160553
1421714496977.00,-2.3754103,-7.3313046,1.3988411
1421714497001.00,-1.0611434,-7.6790314,-0.2802173
1421714497006.00,-0.98480207,-9.818083,-1.9161654
1421714497023.00,-1.4675483,-10.789264,-1.1729608
1421714497043.00,-1.4208454,-9.642797,-1.3817766
1421714497065.00,-1.4852115,-9.147926,-0.9836046
1421714497086.00,-1.1506572,-9.139395,-0.87687653
1421714497107.00,-0.6821315,-10.072404,-1.145418
1421714497136.00,-0.46388534,-10.820549,-2.656825
1421714497146.00,-0.5849835,-12.97412,-4.6945376
1421714497164.00,-1.9959494,-16.632813,-5.0771422
1421714497184.00,-5.317692,-18.397192,-5.4097505
1421714497204.00,-6.529272,-15.842156,-4.402495
1421714497224.00,-7.130422,-12.73342,-2.7518775
1421714497244.00,-5.3711305,-10.314751,-2.1993763
1421714497323.00,-3.9487884,-9.6356125,-2.4822881
1421714497324.00,-4.0285726,-10.553354,-3.8966968
1421714497325.00,-4.101471,-10.839559,-3.4173934
1421714497326.00,-3.771108,-9.148974,-2.2350023
1421714497356.00,-2.8000772,-7.4039035,-1.898951
1421714497364.00,-2.0155587,-5.5682707,-2.6921515
1421714497384.00,-1.8859282,-4.135151,-2.9398866
1421714497404.00,-2.7499316,-3.5075061,-2.5277934
1421714497424.00,-3.5534606,-3.1066396,-1.7242644
1421714497462.00,-3.4967284,-3.392695,-1.2241544
1421714497465.00,-2.9627888,-3.7064424,-0.814606
1421714497496.00,-2.1459374,-3.7401223,-0.80502594
1421714497504.00,-1.6759149,-3.5030155,-0.58992326
1421714497524.00,-1.7004639,-3.1382241,-0.8580158
1421714497544.00,-1.2985497,-3.2368689,-1.3953983
1421714497564.00,-0.63108766,-4.8609915,-2.3228695
1421714497620.00,0,-8.097711,-2.5008495
1421714497622.00,0.8282277,-12.518168,-1.7031583
1421714497626.00,1.5992743,-14.048137,-2.0398083
1421714497653.00,1.9378701,-13.565391,-6.3204565
1421714497664.00,1.926943,-12.10847,-8.33886
1421714497685.00,-1.2699591,-9.260044,-5.600903
1421714497704.00,-3.80853,-8.240214,-2.0838168
1421714497724.00,-6.3852715,-7.2524185,-0.80787003
1421714497744.00,-6.9248996,-7.02085,-2.0796254
1421714497764.00,-5.2362614,-7.3131924,-3.85194
1421714497798.00,-2.6747878,-8.734786,-4.5036845
1421714497804.00,-1.8300943,-10.604847,-4.871769
1421714497824.00,-2.477947,-12.356654,-4.3580375
1421714497844.00,-1.9157163,-13.646971,1.8720071
1421714497864.00,-3.239713,-17.68692,-1.0963202
1421714497884.00,-0.39083725,-19.323467,-14.931001
1421714497905.00,-2.689158,-10.645113,6.1050544
1421714497933.00,-5.094955,-7.402706,8.132588
1421714497992.00,-4.4596763,-7.9011693,5.307214
1421714497993.00,-3.7275486,-9.595047,1.8700612
1421714497994.00,-4.648733,-14.250965,-2.5345294
1421714498024.00,-1.367107,-12.680282,-3.1527438
1421714498028.00,-0.6304889,-9.672735,1.5230827
1421714498045.00,-0.6345305,-7.907007,1.8226099
1421714498064.00,-1.2732522,-8.152048,-0.2296225
1421714498085.00,-1.9309845,-9.178164,-1.1235635
1421714498104.00,-2.0960913,-9.150472,-1.2148737
1421714498133.00,-1.6459771,-8.801098,-1.6269667
1421714498150.00,-1.4418018,-8.786578,-1.6230748
1421714498165.00,-1.2561878,-8.716075,-1.8250049
1421714498184.00,-1.2237053,-8.543933,-2.305356
1421714498204.00,-0.9397458,-7.9727206,-2.9243188
1421714498227.00,-0.33530274,-8.258925,-4.251459
1421714498247.00,-0.15687378,-8.590935,-3.9860609
1421714498304.00,-0.7048842,-8.599168,-2.258803
1421714498305.00,-1.432072,-7.6702,-0.780477
1421714498306.00,-1.7889299,-7.7248363,-0.9812096
1421714498331.00,-1.7669257,-8.662187,-1.8130298
1421714498346.00,-1.4187497,-8.731643,-1.1135345
1421714498365.00,-1.2154725,-8.572224,-1.1852353
1421714498387.00,-1.5670912,-8.749605,-0.8866063
1421714498419.00,-1.7699194,-8.615185,-1.1470647
1421714498424.00,-2.003883,-8.757988,-1.6847465
1421714498444.00,-2.0719912,-9.267379,-2.1733305
1421714498465.00,-2.0496876,-9.085656,-0.8437953
1421714498483.00,-1.8983524,-8.14606,-0.5016069
1421714498504.00,-1.2596306,-8.294402,-0.71790713
1421714498526.00,-0.9380992,-9.244776,-0.5721103
1421714498547.00,-0.49936157,-9.546099,-1.3624667
1421714498564.00,-0.5164261,-9.279353,-1.5920892
1421714498617.00,-0.40850052,-9.578431,-1.7269588
1421714498618.00,0.018262023,-10.416389,-3.2970438
1421714498665.00,-0.41209304,-12.032578,-4.586163
1421714498666.00,-1.9627185,-16.062946,-5.1317782
1421714498667.00,-5.4829483,-19.065554,-6.336922
1421714498684.00,-6.787336,-15.920743,-4.6128078
1421714498704.00,-7.1371584,-11.504327,-2.5006998
1421714498724.00,-5.5345907,-9.121582,-1.5402969
1421714498746.00,-3.123854,-8.854836,-2.3408322
1421714498778.00,-2.8370504,-10.493329,-3.4108071
1421714498784.00,-3.3766782,-10.804382,-4.061953
1421714498804.00,-3.0796957,-9.596245,-3.190166
1421714498824.00,-2.536176,-8.380024,-1.9612216
1421714498844.00,-1.7820442,-6.767876,-1.7158818
1421714498864.00,-1.5281721,-4.863087,-2.0839663
1421714498884.00,-2.3628364,-4.0041733,-2.5438101
1421714498956.00,-3.1943574,-3.830235,-2.2204826
1421714498958.00,-3.439697,-4.131109,-2.151027
1421714498958.00,-3.1837294,-4.6267285,-1.9329305
1421714498989.00,-2.577939,-5.1380653,-2.1035757
1421714498990.00,-2.1737795,-5.2563195,-2.3453228
1421714499004.00,-1.6952248,-4.9764013,-2.48139
1421714499024.00,-1.1326946,-4.7219305,-2.4893234
1421714499045.00,-0.08831634,-5.2150054,-1.9185604
1421714499080.00,0.6879694,-7.4317455,-1.3130695
1421714499084.00,1.0987152,-10.90183,-1.4235398
1421714499104.00,1.3271402,-12.142899,-1.5018269
1421714499124.00,0.95875627,-10.228081,-2.5438101
1421714499144.00,0.368833,-8.643326,-3.3394058
1421714499164.00,-0.24863297,-8.979826,-4.325555
1421714499184.00,-0.8810678,-10.342293,-4.4117756
1421714499204.00,-1.7938696,-10.715767,-3.7386255
1421714499281.00,-3.6178267,-10.488688,-3.4188905
1421714499282.00,-4.534371,-10.359358,-3.6510575
1421714499283.00,-4.2959166,-9.222472,-2.6141639
1421714499285.00,-3.4410443,-8.599767,-1.8324894
1421714499307.00,-2.9789553,-8.596923,-1.9722986
1421714499324.00,-2.5595274,-8.511451,-2.6379642
1421714499344.00,-2.5647666,-8.623268,-3.5078056
1421714499365.00,-3.0217662,-10.385553,-3.9733374
1421714499397.00,-2.6595194,-11.452684,-1.9576291
1421714499404.00,-2.1531227,-11.89232,1.3879138
1421714499424.00,-3.5476227,-16.094532,1.939367
1421714499444.00,-2.5207582,-19.106867,-11.044034
1421714499464.00,-0.8707393,-13.058694,-1.4025834
1421714499484.00,-4.060606,-7.818541,8.248298
1421714499504.00,-3.5372941,-5.9378524,6.3405147
1421714499526.00,-3.4741256,-7.7101665,5.4410353
1421714499591.00,-6.0950255,-11.638148,2.38035
1421714499594.00,-1.3585749,-12.235406,-4.871021
1421714499595.00,0.355361,-10.602153,-1.2490027
1421714499627.00,-0.19684067,-8.529563,1.3268409
1421714499629.00,-0.9855505,-7.9002714,-0.19220032
1421714499644.00,-1.181044,-7.9366455,-1.051713
1421714499665.00,-1.5739769,-8.585996,-1.5600559
1421714499684.00,-1.2528946,-9.239686,-2.2032683
1421714499704.00,-0.7873627,-9.3067465,-2.689607
1421714499742.00,-0.2749782,-8.518187,-3.16427
1421714499744.00,-0.3412903,-7.2771173,-2.7937903
1421714499764.00,-1.0590477,-6.9394193,-1.6320561
1421714499785.00,-1.4247372,-7.9863424,-1.4694942
1421714499804.00,-0.9656419,-8.596623,-2.4544458
1421714499831.00,-1.0803035,-7.8019257,-1.5739769
1421714499844.00,-1.253194,-7.2500234,-0.39068756
1421714499864.00,-1.7675244,-7.4630303,-0.75308394
1421714499924.00,-2.0731888,-8.7946615,-1.7134868
1421714499925.00,-2.4884253,-9.267677,-0.83885556
1421714499926.00,-2.8363018,-8.713231,0.75847274
1421714499950.00,-2.2228775,-7.9680805,-0.4831952
1421714499964.00,-1.0823991,-8.50666,-0.7268884
1421714499984.00,-0.8628058,-10.115814,-1.2394226
1421714500004.00,-0.7699988,-11.24761,-2.1528232
1421714500024.00,-1.2518468,-9.879755,-0.90411985
1421714500067.00,-1.2612772,-10.289303,-0.81191164
1421714500068.00,-1.2051439,-10.81516,-1.201252
1421714500085.00,-1.5173945,-11.051369,-3.1871722
1421714500104.00,-1.30319,-14.625337,-4.8267126
1421714500125.00,-4.196523,-18.272652,-6.5482826
1421714500145.00,-6.8322425,-16.849262,-6.0381436
1421714500164.00,-5.8957896,-13.132341,-2.8595037
1421714500251.00,-5.455405,-10.114766,-1.6823516
1421714500252.00,-4.1171885,-9.430839,-0.5575905
1421714500254.00,-3.6889288,-9.626781,-1.9761904
1421714500255.00,-3.7752993,-11.254197,-3.986959
1421714500280.00,-3.0701156,-10.606045,-3.6015105
1421714500285.00,-2.4391778,-9.046886,-1.700913
1421714500307.00,-1.9806812,-7.877818,-0.9976753
1421714500324.00,-1.9950513,-6.4078746,-1.3807287
1421714500344.00,-2.4562423,-4.761748,-2.5471032
1421714500375.00,-3.510949,-4.160598,-2.514022
1421714500385.00,-4.132606,-3.8154159,-2.053879
1421714500404.00,-3.9981856,-4.0944357,-1.7503102
1421714500426.00,-3.3597634,-3.8594244,-1.3811778
1421714500447.00,-2.4574397,-3.4175432,-1.0401869
1421714500464.00,-1.9814296,-3.084336,-1.0533595
1421714500484.00,-1.7443227,-2.401456,-1.0047107
1421714500504.00,-1.4093193,-2.0218456,-0.7955955
1421714500524.00,-0.26210496,-4.410129,-0.13681549
1421714500586.00,0.91010743,-9.133556,-0.5351372
1421714500587.00,1.6771125,-14.538517,-1.0758128
1421714500588.00,1.9943029,-15.588882,-1.6461269
1421714500609.00,0.5816904,-12.291389,-4.410129
1421714500624.00,-0.96773756,-11.5243845,-8.307125
1421714500644.00,-1.5160474,-11.184591,-7.1293745
1421714500664.00,-2.9100983,-10.057137,-4.9404764
1421714500689.00,-4.98194,-8.894054,-3.162324
1421714500705.00,-6.8575397,-8.0549,-2.6689498
1421714500725.00,-8.02586,-7.3110967,-5.1774335
1421714500744.00,-6.526129,-9.466464,-6.5651975
1421714500764.00,-4.7005253,-11.590847,-2.902165
1421714500786.00,-3.340304,-13.044474,2.007625
1421714500804.00,-2.7882519,-13.0473175,2.417323
1421714500824.00,-0.72045183,-16.315922,-2.8527677
1421714500901.00,1.3668077,-17.03293,-2.7656488
1421714500902.00,-1.979783,-12.205768,2.7521768
1421714500905.00,-5.676346,-9.904004,4.3358836
1421714500906.00,-4.9599357,-10.296787,4.6473856
1421714500930.00,-4.5509863,-11.101963,0.94273955
1421714500945.00,-1.1891272,-11.219769,-0.9556128
1421714500964.00,0.61776537,-10.782378,-0.29129425
1421714500986.00,0.14504836,-9.503587,0.030237122
1421714501017.00,-1.0118958,-8.08379,-0.76461
1421714501025.00,-1.2545412,-7.5564365,-1.2913646
1421714501045.00,-1.0294093,-7.339537,-1.7700691
1421714501067.00,-0.9339079,-7.332352,-2.0489392
1421714501084.00,-0.65204406,-7.832013,-2.5628207
1421714501104.00,-0.50220567,-9.156609,-4.1400905
1421714501124.00,-0.07155121,-9.319171,-5.830825
1421714501144.00,-0.30955628,-8.435858,-3.9703436
1421714501165.00,-1.2121793,-7.4134836,-1.2112812
1421714501221.00,-1.9260448,-7.758965,-0.5530998
1421714501223.00,-1.6997154,-8.09801,-0.5113367
1421714501224.00,-1.0145901,-8.050409,-0.31299913
1421714501248.00,-0.26988876,-8.570578,-2.3830445
1421714501265.00,-0.9029224,-9.03132,-1.7101936
1421714501284.00,-2.2715263,-8.277786,-0.42017624
1421714501305.00,-2.2230272,-8.630603,-0.76925033
1421714501324.00,-1.5838563,-9.171428,-0.77808195
1421714501359.00,-1.0141411,-8.743618,-0.83376616
1421714501364.00,-0.87148774,-9.254954,-0.47556105
1421714501384.00,-1.190175,-9.870923,-0.8599617
1421714501404.00,-0.9409433,-10.245295,-1.147364
1421714501424.00,-1.2202624,-10.92114,-1.5988252
1421714501444.00,-1.4626085,-10.219249,-1.8441651
1421714501466.00,-1.0235715,-10.974278,-2.9722192
1421714501487.00,-0.48020142,-14.39302,-4.5541296
1421714501506.00,-3.3650024,-18.127304,-6.0900855
1421714501569.00,-6.057154,-16.718285,-6.302644
1421714501570.00,-6.476881,-12.578643,-3.3611104
1421714501571.00,-5.731731,-10.470127,-1.9651135
1421714501599.00,-4.0254292,-8.87235,-0.78601545
1421714501606.00,-3.6534526,-9.266331,-2.1070185
1421714501625.00,-3.608546,-10.546169,-3.7107835
1421714501644.00,-3.9425015,-9.980495,-3.4235308
1421714501666.00,-3.3356636,-8.483309,-2.2809567
1421714501702.00,-2.493365,-7.7010355,-1.1662248
1421714501706.00,-2.473606,-5.9818606,-1.1243119
1421714501725.00,-2.8753707,-4.0670424,-1.762435
1421714501744.00,-3.7663178,-3.8029916,-2.031276
1421714501764.00,-4.3426194,-4.181105,-2.146237
1421714501784.00,-4.0372543,-4.298162,-2.0609143
1421714501804.00,-3.2280374,-4.245172,-1.6789087
1421714501861.00,-2.68332,-3.5796561,-0.8815169
1421714501861.00,-2.1059706,-3.259472,-0.43020537
1421714501881.00,-1.4627582,-3.109933,0.021555176
1421714501884.00,-1.2157718,-4.716841,-0.66177386
1421714501904.00,-0.31928605,-8.678204,-1.9405646
1421714501924.00,0.9327104,-13.028158,-2.1472847
1421714501944.00,2.0231926,-13.673316,-1.9035915
1421714501965.00,1.7362394,-11.219918,-3.5636394
1421714501984.00,-0.045056306,-10.696307,-5.2679954
1421714502010.00,-2.6351202,-11.145523,-5.63593
1421714502030.00,-4.5536804,-11.116932,-5.6979012
1421714502046.00,-4.8991623,-10.009235,-4.7392945
1421714502064.00,-3.9516325,-9.120983,-3.3206947
1421714502085.00,-3.499423,-9.034163,-2.858456
1421714502104.00,-4.21254,-9.333691,-4.4105783
1421714502124.00,-4.371809,-9.662107,-6.0260186
1421714502205.00,-4.637955,-10.858719,-1.479224
1421714502206.00,-4.424499,-12.949422,3.8507423
1421714502207.00,-4.4388695,-13.98377,1.9510428
1421714502208.00,-1.4260844,-16.888031,-7.8245287
1421714502253.00,0.10912308,-15.144307,-0.15822098
1421714502254.00,-3.230582,-9.249715,4.745881
1421714502266.00,-4.3022037,-7.7546244,5.27533
1421714502284.00,-4.4427614,-9.894424,4.617298
1421714502307.00,-3.509901,-12.005185,-0.65354097
1421714502348.00,0.025596771,-11.890823,-1.9574794
1421714502351.00,0.2865042,-10.645263,1.0689272
1421714502364.00,-0.517923,-8.794961,0.6345305
1421714502386.00,-1.1439213,-7.856113,-0.16645385
1421714502404.00,-1.9396664,-7.989935,-0.121247865
1421714502424.00,-1.723965,-8.095615,-1.1940669
1421714502444.00,-1.07716,-8.022567,-2.643952
1421714502514.00,-0.4513115,-8.456215,-2.715503
1421714502515.00,0.0504451,-8.9762335,-2.82762
1421714502516.00,0.13217515,-8.228988,-2.3968158
1421714502541.00,-0.834814,-6.940617,-1.0913805
1421714502544.00,-1.1822416,-6.6416883,-1.0957215
1421714502565.00,-0.5471123,-7.488777,-1.919159
1421714502584.00,-0.7981403,-8.046517,-0.8042775
1421714502605.00,-1.4823674,-8.35802,0.23441254
1421714502625.00,-0.7779323,-8.806038,-0.17618363
1421714502644.00,-0.4258644,-9.14149,-0.11121872
1421714502677.00,-1.3256433,-9.401799,-0.15193406
1421714502684.00,-2.2493725,-9.969568,-0.65892977
1421714502705.00,-2.1007316,-9.840686,-0.08023316
1421714502724.00,-1.1466156,-9.641451,-1.6452287
1421714502744.00,-0.8529263,-10.217902,-1.5765216
1421714502766.00,-0.8918454,-11.072325,-1.375789
1421714502784.00,-0.58079225,-12.103681,-2.4780967
1421714502844.00,-0.54157376,-11.717933,-3.9200482
1421714502845.00,-0.7529343,-12.917388,-5.464387
1421714502846.00,-1.8514998,-15.705191,-5.340295
1421714502894.00,-3.7853284,-17.044905,-4.0862026
1421714502895.00,-6.084098,-14.852714,-1.7859361
1421714502904.00,-6.84302,-12.046948,-0.24848327
1421714502924.00,-6.166876,-9.699829,-0.78466827
1421714502944.00,-4.2911267,-9.640103,-1.8244061
1421714502982.00,-2.7494824,-9.46377,-2.7223887
1421714502984.00,-3.5658846,-8.516989,-2.13516
1421714503005.00,-4.440516,-7.2765183,-1.5747254
1421714503027.00,-4.2285566,-6.1448717,-0.8276289
1421714503044.00,-3.5326538,-6.0052123,-0.8596623
1421714503065.00,-3.0204191,-6.111491,-0.85277665
1421714503084.00,-3.3688943,-5.83786,-0.9241782
1421714503104.00,-3.4771192,-5.9092617,-1.3810282
1421714503187.00,-3.3250356,-6.0613456,-1.830244
1421714503188.00,-3.1439123,-6.2078905,-1.8152751
1421714503189.00,-3.0138328,-7.5935593,-2.1622536
1421714503190.00,-1.9856209,-9.466913,-3.1621742
1421714503217.00,-0.74095917,-11.080708,-4.091891
1421714503225.00,0.17393829,-11.653267,-5.4410353
1421714503245.00,1.7122893,-10.8346195,-6.8273025
1421714503265.00,1.8510507,-9.661509,-6.9883676
1421714503301.00,0.9207353,-8.928633,-5.2096167
1421714503305.00,0.56058425,-8.750653,-3.27489
1421714503325.00,0.050744478,-8.681946,-2.1844075
1421714503344.00,-1.5444882,-9.281599,-2.2309606
1421714503365.00,-3.594625,-9.713151,-2.6117687
1421714503384.00,-5.2332673,-9.80012,-1.988465
1421714503405.00,-5.9632993,-13.434712,-2.2725742
1421714503424.00,-4.1917334,-14.288537,-5.871091
1421714503445.00,-3.7083883,-9.453142,-2.0368145
1421714503513.00,-4.6782217,-5.4530106,2.5888665
1421714503514.00,-5.006339,-4.4503956,4.1730223
1421714503515.00,-4.57793,-6.3824277,4.1302114
1421714503546.00,-2.7032287,-10.7927065,3.4923875
1421714503547.00,1.1367362,-13.424833,-0.5372328
1421714503565.00,1.7034576,-12.277169,-2.9190798
1421714503586.00,-1.4404546,-9.946516,0.35670823
1421714503605.00,-3.8136196,-8.750204,1.5322137
1421714503645.00,-4.422703,-8.752898,1.6042141
1421714503646.00,-3.6812947,-9.101074,0.83092207
1421714503665.00,-3.195405,-9.413176,0.6459068
1421714503685.00,-2.8502228,-9.069789,1.7305512
1421714503705.00,-2.3161335,-9.164692,2.3029609
1421714503726.00,-2.146237,-9.186846,2.3700216
1421714503745.00,-1.2731025,-9.431288,2.1824615
1421714503765.00,-0.49561936,-9.869427,1.6395406
1421714503831.00,0.068407744,-9.977502,1.0382409
1421714503832.00,0.41448808,-10.006541,0.8464897
1421714503833.00,0.09385483,-9.53128,1.2049942
1421714503865.00,-0.13516891,-9.182804,1.0503658
1421714503866.00,-0.1498384,-9.364377,0.7499405
1421714503885.00,0.17318985,-9.427096,0.57794815
1421714503904.00,0.47870454,-9.693393,0.6224057
1421714503924.00,0.5879773,-10.617571,0.54501665
1421714503979.00,0.25192612,-10.903476,0.15178436
1421714503980.00,-1.0318043,-10.422077,-0.5839357
1421714503986.00,-2.5848248,-9.6356125,-0.4234694
1421714504006.00,-3.0925689,-9.409433,0.032033388
1421714504027.00,-3.617228,-9.592053,-1.4485377
1421714504046.00,-3.3278797,-10.4743185,-2.7364595
1421714504065.00,-1.9043399,-11.802207,-1.391207
1421714504085.00,-1.2955558,-13.412109,-1.1018586
1421714504105.00,-1.4446459,-14.550941,-1.0903326
1421714504166.00,-3.0015583,-13.760136,-1.223406
1421714504167.00,-4.278104,-12.586127,-1.3982424
1421714504168.00,-5.4021163,-10.760374,-1.5766712
1421714504196.00,-7.063661,-9.79114,-1.5862514
1421714504205.00,-7.4160285,-8.42029,0.5119354
1421714504225.00,-7.013815,-8.2059355,2.6274862
1421714504245.00,-6.8570905,-8.687933,4.075425
1421714504265.00,-7.3332505,-8.475974,2.821782
1421714504294.00,-5.821544,-8.987011,-4.010011
1421714504305.00,-1.2771442,-11.153457,-2.1505778
1421714504324.00,-0.56717056,-9.762698,0.1167572
1421714504345.00,-1.5841557,-7.313641,0.97492266
1421714504365.00,-2.5750952,-5.903274,0.6264473
1421714504384.00,-2.938689,-6.002368,-7.48E-04
1421714504404.00,-2.931504,-6.2051964,-0.4843927
1421714504467.00,-2.6096733,-6.242469,-1.0331515
1421714504468.00,-2.1704865,-5.663323,-1.335373
1421714504469.00,-1.6688795,-5.140909,-1.6461269
1421714504497.00,-1.0166858,-6.1075993,-1.8311421
1421714504507.00,-0.63887143,-7.4295,-2.2080584
1421714504525.00,-0.7921527,-8.447983,-2.9009674
1421714504546.00,-0.8367599,-8.922945,-4.5455976
1421714504567.00,-0.8551717,-9.700578,-7.4461155
1421714504586.00,-1.8324894,-11.292666,-9.379046
1421714504619.00,-3.2567775,-11.610157,-7.686516
1421714504629.00,-3.0443692,-11.154354,-5.2956877
1421714504646.00,-2.6997857,-9.720037,-4.0448885
1421714504665.00,-3.270399,-8.456365,-4.1029677
1421714504684.00,-3.4826577,-6.7120423,-3.0036538
1421714504705.00,-3.9320233,-7.9947248,-2.0419037
1421714504725.00,-5.4341497,-13.769865,-5.0738487
1421714504744.00,-3.0714629,-17.261953,-4.2487645
1421714504814.00,-5.0960026,-11.032957,-0.9286688
1421714504816.00,-5.7526875,-4.6499305,3.0635293
1421714504817.00,-4.477489,-2.6668541,4.412075
1421714504845.00,-4.142186,-3.4245787,3.6516564
1421714504846.00,-3.4795144,-7.4227643,2.1466858
1421714504865.00,0.6608757,-16.237783,0.9656419
1421714504885.00,2.2854474,-14.424155,-2.0357666
1421714504905.00,0.050744478,-11.042387,-0.9515712
1421714504926.00,-3.0737083,-9.018446,-0.11511063
1421714504946.00,-4.286486,-8.185129,0.88600755
1421714504965.00,-3.4554145,-8.449479,1.1768527
1421714504985.00,-2.266886,-9.123677,0.8981323
1421714505019.00,-1.4929953,-10.156829,0.05957611
1421714505025.00,-1.056952,-10.069261,-0.42706192
1421714505045.00,-1.2657678,-9.756412,-0.4564009
1421714505065.00,-1.3856685,-9.518406,-0.21435425
1421714505116.00,-1.7137861,-9.543105,-0.24668701
1421714505117.00,-1.7914746,-9.55987,-0.6183641
1421714505125.00,-1.4326707,-9.023087,-1.9895128
1421714505147.00,-0.5641768,-9.048533,-4.161496
1421714505168.00,-0.35790575,-9.4976,-4.853657
1421714505184.00,-1.3371693,-8.699908,-2.3191273
1421714505204.00,-1.8512005,-7.3513627,-0.48753616
1421714505225.00,-0.8265811,-7.249275,-1.3708493
1421714505247.00,-0.8702902,-7.1819153,-0.79514647
1421714505266.00,-1.6566051,-7.5579333,-0.61028093
1421714505286.00,-1.8646724,-8.163125,-0.5379813
1421714505305.00,-1.1466156,-8.162975,-1.0105486
1421714505325.00,-0.5221143,-7.971074,-1.234932
1421714505346.00,-0.24459137,-7.219637,-0.42526567
1421714505364.00,-0.20537293,-7.7218423,-1.2900174
1421714505385.00,-0.80772036,-9.834848,-0.6059399
1421714505404.00,-0.8147557,-9.24268,0.21824616
1421714505477.00,0.045205995,-9.025182,0.005688171
1421714505478.00,0.05598358,-9.092392,0.23411316
1421714505479.00,-0.70009416,-9.380243,-0.58273816
1421714505507.00,-1.0023156,-10.311458,-1.280587
1421714505508.00,-0.9476793,-10.548115,-1.4852115
1421714505526.00,-0.84050214,-10.80079,-1.8907182
1421714505544.00,-1.2817845,-11.985725,-3.059787
1421714505568.00,-1.346001,-12.265793,-4.2499623
1421714505597.00,-1.135838,-13.612094,-5.698799
1421714505605.00,-1.730701,-16.031063,-5.7925043
1421714505625.00,-4.5532317,-17.41778,-5.436694
1421714505645.00,-4.7368994,-16.30185,-2.0863614
1421714505664.00,-4.0107594,-12.58448,0.6474037
1421714505684.00,-3.7384758,-9.922865,1.6051122
1421714505704.00,-2.8960276,-8.17959,-0.13636643
1421714505769.00,-3.143014,-7.334897,-2.0411553
1421714505770.00,-3.2540832,-8.6909275,-2.4768991
1421714505771.00,-4.069138,-7.432644,-1.5690372
1421714505801.00,-2.9572504,-5.957761,-0.3820056
1421714505810.00,-2.248175,-4.74618,-0.07918534
1421714505825.00,-2.295776,-4.0008802,-0.32422578
1421714505846.00,-2.5768914,-3.8977447,-0.47331575
1421714505866.00,-3.095413,-4.1800575,-0.3161426
1421714505884.00,-2.9984148,-4.019891,-0.2917433
1421714505904.00,-2.8523185,-3.8776863,-0.40909928
1421714505925.00,-2.506837,-5.1483936,-0.3984714
1421714505954.00,-2.1826112,-9.070388,-0.23111938
1421714505968.00,-0.20148101,-11.735895,-0.61626846
1421714505985.00,1.6983682,-12.762909,-2.4306455
1421714506005.00,1.2642709,-11.422747,-4.949308
1421714506026.00,0.02350113,-10.136321,-5.864954
1421714506045.00,-0.13576767,-9.112001,-4.8210244
1421714506119.00,-0.6652167,-8.879086,-3.411855
1421714506120.00,-1.7747095,-9.150621,-2.0007393
1421714506122.00,-3.266208,-8.710686,-1.3582754
1421714506126.00,-4.294719,-7.8173437,-1.9016455
1421714506148.00,-4.187542,-7.7803707,-0.21435425
1421714506167.00,-3.8800814,-8.071066,0.14355148
1421714506185.00,-3.2287858,-8.431367,-3.2289355
1421714506205.00,-1.6182847,-10.200238,-6.6383953
1421714506225.00,-1.2020004,-12.366982,-6.1152334
1421714506251.00,-1.6839981,-13.201198,-3.4516723
1421714506266.00,-2.7364595,-13.843063,0.39742357
1421714506285.00,-3.6488123,-15.206279,2.253414
1421714506305.00,-2.2975721,-18.868263,-8.669072
1421714506324.00,-0.8068222,-14.387181,-1.5395485
1421714506349.00,-3.6838393,-9.014704,6.4208975
1421714506366.00,-3.3334181,-7.561376,6.5066695
1421714506448.00,-3.2918046,-10.443183,5.6511984
1421714506449.00,-4.3728566,-12.3156395,2.3691235
1421714506450.00,0.49996033,-12.149485,-3.5145414
1421714506451.00,1.5178436,-10.722353,-1.8854791
1421714506482.00,-1.1023078,-8.277038,1.4465919
1421714506485.00,-1.7229172,-7.4052505,1.8022522
1421714506505.00,-1.7112415,-8.528814,0.20701951
1421714506524.00,-1.8522482,-9.755064,-1.0924283
1421714506544.00,-1.9263442,-9.562715,-1.3982424
1421714506565.00,-1.800905,-9.10766,-1.1542497
1421714506598.00,-1.015638,-8.92504,-1.7685722
1421714506605.00,-0.002694397,-9.062454,-2.1639001
1421714506625.00,0.10523117,-8.457862,-1.8654208
1421714506645.00,0.14879058,-8.38182,-0.9610016
1421714506666.00,0.010777588,-8.979976,-1.2798386
1421714506686.00,0.15986755,-9.38219,-2.9657826
1421714506749.00,0.15028748,-8.714877,-3.1063404
1421714506750.00,-0.59276736,-8.0436735,-1.5741266
1421714506751.00,-1.7929715,-7.9101505,0.1287323
1421714506779.00,-1.9728973,-8.447534,-0.8557704
1421714506785.00,-1.1663746,-9.174272,-1.7437239
1421714506805.00,-0.9620494,-8.977282,-1.3750405
1421714506825.00,-1.0002201,-8.374036,-1.6515156
1421714506844.00,-1.5218853,-7.6938505,-1.1114388
1421714506866.00,-1.3569282,-8.551867,-1.0713222
1421714506902.00,-0.19354752,-9.238638,-1.2121793
1421714506905.00,-0.5040019,-9.490265,-0.13142669
1421714506928.00,-1.5600559,-9.19957,-0.057031404
1421714506944.00,-1.3135185,-9.832603,-0.90816146
1421714506965.00,-1.5126045,-9.711505,-1.2524456
1421714506987.00,-1.5100598,-9.490714,-1.8473085
1421714507005.00,-1.1231145,-9.549242,-2.0013382
1421714507025.00,-0.9210347,-9.909693,-1.7431252
1421714507096.00,-0.41299117,-10.342592,-2.5969496
1421714507097.00,-0.21210891,-11.611653,-3.966751
1421714507098.00,-0.5340893,-13.410912,-4.889133
1421714507133.00,-2.9109964,-15.389348,-4.7909374
1421714507134.00,-4.5761337,-15.540683,-3.887865
1421714507145.00,-5.6015015,-13.895155,-1.8820363
1421714507170.00,-4.934938,-11.674522,-1.4608122
1421714507188.00,-3.6976109,-9.8221245,-1.6015196
1421714507230.00,-2.271227,-9.772279,-1.5943346
1421714507231.00,-2.4132814,-10.648855,-2.8973749
1421714507245.00,-3.0033545,-10.253528,-3.4262252
1421714507267.00,-2.9505143,-8.957822,-2.3174808
1421714507286.00,-2.6458979,-8.062235,-1.2386742
1421714507402.00,-2.7231371,-6.8638268,-1.2765454
1421714507403.00,-3.041076,-5.7067327,-2.1321661
1421714507404.00,-3.1805859,-5.187463,-2.4788451
1421714507405.00,-3.184328,-5.039271,-1.891317
1421714507406.00,-3.5506165,-4.867877,-1.3585749
1421714507407.00,-3.5774107,-4.9066467,-1.1150312
1421714507442.00,-3.2413595,-5.0398693,-1.0187814
1421714507497.00,-2.8475285,-4.8565006,-1.167123
1421714507504.00,-2.2570066,-4.598587,-1.361419
1421714507509.00,-1.6944764,-4.3637257,-1.1645782
1421714507510.00,-1.332529,-5.711074,-0.7734416
1421714507547.00,-0.873284,-8.673413,-0.7316785
1421714507548.00,-0.19220032,-12.209061,-1.9374211
1421714507573.00,1.3049862,-13.082944,-3.918701
1421714507586.00,2.3138883,-10.698253,-5.388794
1421714507607.00,1.2799883,-10.377919,-5.6794896
1421714507626.00,-1.2518468,-9.898167,-5.0751963
1421714507645.00,-2.4037015,-9.509575,-3.911067
1421714507666.00,-2.5288413,-9.03117,-3.0488598
1421714507729.00,-1.8779947,-8.866363,-2.51507
1421714507730.00,-1.7070502,-8.956625,-3.0099409
1421714507731.00,-2.4324417,-8.975934,-3.106939
1421714507758.00,-2.9047096,-8.87699,-2.6161098
1421714507766.00,-2.744842,-8.505013,-2.3129902
1421714507786.00,-3.0273046,-8.912018,-3.5467246
1421714507805.00,-3.1904655,-10.388846,-5.5639296
1421714507825.00,-3.0195208,-12.565769,-6.6853976
1421714507845.00,-2.8264225,-14.311589,-2.899171
1421714507865.00,-4.1713758,-14.679673,2.3921754
1421714507900.00,-2.7369087,-15.312108,-3.8854702
1421714507905.00,-0.71341646,-13.737233,-2.808909
1421714507925.00,-2.3400838,-10.5885315,5.637277
1421714507946.00,-3.290158,-9.681268,7.1063223
1421714507965.00,-3.5905833,-10.413245,4.8771577
1421714507985.00,-3.974535,-11.581416,2.9892838
1421714508005.00,-0.925226,-12.141402,-2.6764343
1421714508098.00,1.0662328,-10.873388,-3.7206628
1421714508099.00,-1.1963123,-8.609646,0.82777864
1421714508100.00,-1.669628,-7.8607535,2.3893313
1421714508101.00,-0.818947,-8.273445,1.0184821
1421714508141.00,-0.8202942,-9.656868,-1.5849042
1421714508142.00,-1.1280541,-9.496102,-2.7099645
1421714508145.00,-0.97402453,-9.191636,-2.4634273
1421714508166.00,-0.60519147,-8.765173,-2.2050645
1421714508185.00,0.11600876,-8.410261,-1.7904267
1421714508226.00,0.56627244,-8.660541,-1.8290465
1421714508227.00,0.28770173,-9.642947,-2.626139
1421714508245.00,-0.48214737,-9.516161,-2.6331742
1421714508266.00,-0.943488,-8.72805,-1.8357825
1421714508286.00,-1.2560381,-7.7314224,-0.8479866
1421714508305.00,-1.364263,-6.837781,-0.2612068
1421714508328.00,-1.2464579,-7.1600604,-1.4650035
1421714508409.00,-1.0003697,-8.603808,-2.3839426
1421714508410.00,-2.0698957,-8.97309,-0.23725662
1421714508411.00,-2.2326074,-8.195907,-0.17064515
1421714508412.00,-1.5003301,-6.831344,-0.43319917
1421714508446.00,-0.49352372,-7.5999956,-0.9327104
1421714508447.00,-0.0796344,-10.197844,-1.6762143
1421714508467.00,-0.48274612,-10.099348,-0.809816
1421714508485.00,-1.0033635,-9.12233,0.11870316
1421714508507.00,-0.69859725,-9.146879,-0.5481601
1421714508544.00,-0.5828879,-9.501641,-0.6397696
1421714508545.00,-0.30446684,-10.163864,-1.1865824
1421714508565.00,0.42526567,-11.418106,-1.8946102
1421714508585.00,0.41403902,-11.371852,-2.52944
1421714508605.00,-0.22348526,-12.26744,-3.9944434
1421714508625.00,-0.6119275,-14.03676,-4.607419
1421714508646.00,-2.0779788,-16.039146,-6.245612
1421714508709.00,-4.584367,-15.793208,-5.773943
1421714508710.00,-6.3975463,-13.635445,-3.4712815
1421714508711.00,-6.1508594,-11.887679,-2.0059786
1421714508762.00,-4.1041656,-10.10833,-0.984353
1421714508764.00,-2.9431796,-9.922417,-1.9164647
1421714508765.00,-2.775678,-10.362501,-3.6054025
1421714508785.00,-3.591781,-9.407187,-3.1343322
1421714508805.00,-3.6332445,-7.989935,-1.9035915
1421714508825.00,-3.0097911,-6.9846253,-1.3268409
1421714508854.00,-2.796335,-5.460495,-1.1529025
1421714508865.00,-2.9099488,-3.8414617,-0.85367477
1421714508885.00,-3.4220338,-3.0897248,-0.9195378
1421714508905.00,-3.87589,-3.4126034,-0.73497164
1421714508925.00,-3.4861007,-3.6377354,-0.53962785
1421714508945.00,-3.3811688,-3.3687446,-0.7345226
1421714508965.00,-3.1669643,-2.8906388,-0.6828799
1421714508985.00,-2.2923331,-2.6461973,0.25776398
1421714509057.00,-2.1427941,-5.6223083,0.20806733
1421714509058.00,-0.1924997,-11.982582,-0.27048752
1421714509059.00,2.2484744,-14.801371,-3.0029054
1421714509087.00,3.1421158,-13.915812,-6.3703027
1421714509088.00,2.4397764,-10.563832,-6.8975067
1421714509106.00,0.7981403,-9.692644,-5.5591397
1421714509126.00,-1.377286,-9.801767,-4.552483
1421714509145.00,-2.7057734,-9.893526,-3.4281712
1421714509166.00,-3.3259337,-8.951086,-2.3174808
1421714509185.00,-2.585274,-8.198601,-2.6738896
1421714509205.00,-2.1794677,-7.854766,-3.8971457
1421714509225.00,-2.7322683,-7.750882,-4.9734077
1421714509245.00,-4.0351586,-9.839639,-6.221662
1421714509265.00,-4.791386,-12.155024,-3.5983672
1421714509285.00,-4.574487,-12.648697,1.8500029
1421714509305.00,-5.181475,-12.679683,2.6354196
1421714509325.00,-2.918032,-17.271982,-8.807086
1421714509407.00,1.3244458,-16.906593,-5.250781
1421714509408.00,-2.1478834,-9.749376,5.8582177
1421714509410.00,-3.969745,-8.988808,7.2057157
1421714509411.00,-3.2747402,-11.277248,5.40047
1421714509440.00,-2.994373,-12.399016,-0.046403505
1421714509446.00,1.1529025,-13.144615,-2.981949
1421714509465.00,1.8717078,-11.668535,-0.92118436
1421714509485.00,0.21854553,-9.262738,0.43454635
1421714509517.00,-1.7580941,-7.620353,0.22064118
1421714509526.00,-2.3040087,-7.5299416,-0.8652008
1421714509546.00,-1.3769865,-7.9209285,-2.023492
1421714509565.00,-0.50070876,-8.914862,-3.203189
1421714509585.00,-0.05463638,-9.083561,-3.8064344
1421714509606.00,0.10972183,-8.33362,-5.3313136
1421714509626.00,0.2694397,-8.621621,-5.6193147
1421714509701.00,-0.048349455,-7.9655356,-2.930606
1421714509702.00,-0.9298663,-7.2724767,-0.07095245
1421714509703.00,-1.0006691,-6.5922914,0.3079097
1421714509731.00,-0.16884887,-7.0418067,-1.7410295
1421714509732.00,-0.17992584,-8.343799,-1.0820998
1421714509747.00,-1.0895842,-9.577833,-0.54621416
1421714509767.00,-1.3843213,-9.101673,-0.99108905
1421714509785.00,-1.7031583,-7.668104,-0.73691756
1421714509805.00,-0.29847932,-8.668175,-0.32811767
1421714509825.00,0.15313156,-9.744885,-0.15358062
1421714509854.00,-0.6930588,-10.623708,-0.83975375
1421714509865.00,-1.0566527,-9.758357,-0.4604425
1421714509885.00,-1.3976436,-9.801019,-1.1924204
1421714509905.00,-0.83571213,-10.438394,-2.0219953
1421714509925.00,-0.5783972,-11.706556,-2.4182212
1421714509945.00,-0.11660752,-11.707903,-3.155139
1421714510047.00,-0.138013,-11.72407,-3.2289355
1421714510048.00,0.46164,-12.890294,-4.0299196
1421714510049.00,0.06960525,-15.480658,-5.494025
1421714510050.00,-2.3974144,-15.898439,-5.206174
1421714510051.00,-4.354894,-13.83483,-3.2370186
1421714510075.00,-4.52509,-11.560909,-1.2207115
1421714510086.00,-3.9264848,-9.69938,-0.4604425
1421714510109.00,-3.1716046,-8.309221,-0.49876282
1421714510140.00,-3.208877,-8.812325,-2.0175047
1421714510145.00,-3.4618511,-9.38683,-2.7057734
1421714510166.00,-3.8737943,-8.631202,-2.5514443
1421714510185.00,-3.5929785,-7.2509217,-1.6215779
1421714510205.00,-3.2057335,-5.9073157,-1.0313553
1421714510225.00,-3.351231,-4.348008,-0.84708846
1421714510246.00,-3.648363,-3.773054,-0.54591477
1421714510265.00,-3.7133281,-3.8416114,0.017064514
1421714510351.00,-3.252287,-3.5964212,-0.064216465
1421714510352.00,-3.376828,-3.2590227,-0.26030868
1421714510353.00,-3.100203,-2.4809408,-0.3716771
1421714510354.00,-2.166894,-2.2329066,0.9196875
1421714510376.00,-1.6308587,-8.075108,-0.12753479
1421714510388.00,0.95216995,-12.846885,-1.3037888
1421714510406.00,2.4656725,-16.50333,-3.5618432
1421714510425.00,2.2341042,-12.263398,-6.9609747
1421714510445.00,2.4282503,-9.781559,-6.705905
1421714510476.00,0.45430526,-9.507778,-5.51558
1421714510487.00,-1.4124627,-9.623787,-3.1433134
1421714510509.00,-2.8252249,-9.28579,-1.728755
1421714510525.00,-4.076024,-8.728499,-1.8917661
1421714510545.00,-5.21276,-8.397837,-4.3833346
1421714510566.00,-4.8409333,-8.865015,-5.840704
1421714510589.00,-3.5884876,-10.576257,-3.547473
1421714510605.00,-3.0816417,-14.404097,0.85532135
1421714510626.00,-2.6981392,-16.34511,0.6780899
1421714510698.00,-1.083447,-17.240847,-5.549859
1421714510700.00,-0.18905686,-14.76784,-2.5583298
1421714510700.00,-2.304458,-11.022629,3.8080812
1421714510726.00,-3.4376016,-10.206376,5.1105227
1421714510727.00,-3.3510814,-11.445948,4.359085
1421714510747.00,-3.44793,-12.126284,0.9605525
1421714510765.00,-0.085472256,-12.17598,-1.2831317
1421714510801.00,0.29877868,-10.901081,-0.5008585
1421714510805.00,-0.72928345,-9.319321,1.0867401
1421714510825.00,-1.0361453,-8.247399,0.7370673
1421714510845.00,-1.352737,-7.680678,0.07873627
1421714510866.00,-1.4082714,-7.5320373,-0.37332368
1421714510885.00,-1.3073813,-7.938143,-1.4853612
1421714510905.00,-0.58962387,-8.575816,-2.6572742
1421714510925.00,0.18396744,-8.568631,-3.3015344
1421714510981.00,0.68273026,-7.9403877,-3.3644037
1421714510983.00,0.36658767,-7.2485266,-2.804418
1421714511010.00,-0.62989014,-9.298214,-3.1368768
1421714511011.00,-1.1728112,-9.207802,-2.45729
1421714511025.00,-1.1958632,-7.7751317,-0.6942563
1421714511045.00,-0.800685,-6.410719,-0.54351974
1421714511065.00,-1.0178833,-6.925798,0.30895752
1421714511085.00,-1.3639636,-8.801098,0.12049942
1421714511106.00,-1.4471905,-10.270741,-1.7962646
1421714511136.00,-1.3232483,-9.444011,-1.0294093
1421714511146.00,-1.5786172,-8.577912,0.16525635
1421714511165.00,-1.0092014,-9.034014,-0.65099627
1421714511192.00,-0.84993255,-9.298813,-0.38529876
1421714511205.00,-0.95127183,-9.943822,-0.58977354
1421714511225.00,-0.7405101,-10.426718,-2.0377126
1421714511245.00,-0.5243596,-10.683434,-1.9857706
1421714511308.00,-0.6566844,-10.396031,-2.0489392
1421714511309.00,0.13307327,-11.123817,-3.0111382
1421714511310.00,0.20642075,-12.73387,-4.4984455
1421714511335.00,-1.0762619,-15.189962,-5.8309746
1421714511346.00,-3.3525782,-17.285904,-5.619614
1421714511366.00,-5.3431387,-15.430662,-4.564159
1421714511385.00,-5.4087024,-12.190649,-2.1550684
1421714511405.00,-4.473148,-9.989777,-1.5949333
1421714511426.00,-2.5021966,-9.33399,-1.0907817
1421714511446.00,-2.4089406,-8.997041,-2.8369007
1421714511476.00,-2.8714788,-8.514295,-3.036735
1421714511486.00,-3.5227745,-7.806566,-2.4671695
1421714511507.00,-2.829566,-6.8596354,-1.8817369
1421714511526.00,-2.6688,-6.250851,-1.357078
1421714511546.00,-3.0749056,-5.0078363,-1.1090437
1421714511566.00,-3.5582507,-3.5459762,-0.96579164
1421714511654.00,-3.6479142,-3.2702494,-0.7243437
1421714511655.00,-3.1787896,-3.2278876,-0.5545967
1421714511656.00,-2.9642859,-3.337759,-0.46418473
1421714511657.00,-2.9505143,-3.8453536,-0.38649628
1421714511682.00,-1.9059864,-4.254902,0.027093658
1421714511685.00,-1.283431,-5.9101596,-0.8696915
1421714511706.00,-0.4034111,-9.897717,-2.4209156
1421714511725.00,1.0457253,-11.814182,-3.913462
1421714511745.00,2.5071363,-12.627292,-3.9655535
1421714511779.00,2.6014402,-11.336825,-5.535938
1421714511786.00,0.83810717,-10.40636,-6.2873755
1421714511805.00,-0.9957294,-9.761352,-5.887856
1421714511826.00,-1.9670595,-9.80536,-5.0614247
1421714511846.00,-2.7860065,-9.827663,-4.2367897
1421714511865.00,-3.4585578,-9.498947,-4.0739284
1421714511885.00,-4.1016207,-9.132509,-7.3863897
1421714511905.00,-4.5165577,-10.270741,-8.500374
1421714511981.00,-3.8194573,-10.4124975,-0.255818
1421714511982.00,-2.7427464,-11.474239,4.4517426
1421714511983.00,-3.4019756,-12.551699,1.5946339
1421714512003.00,-2.8211832,-15.193405,-1.5298188
1421714512005.00,-1.8562899,-18.272503,-3.4510734
1421714512026.00,-1.5383509,-13.492791,-2.3011646
1421714512049.00,-4.734355,-9.266331,3.2922537
1421714512066.00,-7.1389546,-7.9520636,5.468578
1421714512112.00,-6.500083,-8.629555,6.2589345
1421714512113.00,-4.103866,-10.876233,4.3824368
1421714512125.00,-1.3057348,-11.648477,1.9910097
1421714512145.00,-0.2891986,-10.741663,0.28889924
1421714512166.00,-1.0797048,-10.016271,-0.74604857
1421714512186.00,-2.6098228,-8.698262,0.18755996
1421714512206.00,-2.949766,-7.9598475,1.113235
1421714512279.00,-2.158212,-7.9159884,1.6139438
1421714512280.00,-0.7644603,-8.296348,2.4641757
1421714512281.00,0.7348219,-8.335267,1.8377284
1421714512306.00,1.1274555,-9.230704,-0.64411056
1421714512307.00,0.8333171,-9.892927,-0.7688013
1421714512326.00,0.0291893,-10.038425,0.010627899
1421714512346.00,0.37541932,-11.465108,-0.20222946
1421714512366.00,1.1070977,-11.518996,-0.93794954
1421714512385.00,0.30940658,-11.047776,-1.8615289
1421714512407.00,-1.317111,-10.67565,-1.5654446
1421714512440.00,-1.9690055,-10.380464,-1.2921131
1421714512446.00,-1.664838,-10.203382,-0.9786649
1421714512466.00,-1.40902,-10.740016,0.29264146
1421714512485.00,-2.1757255,-11.489807,-0.12963043
1421714512505.00,-2.7138565,-12.315041,-2.8452833
1421714512526.00,-3.2995884,-13.043575,-2.1797671
1421714512546.00,-3.8618193,-12.333153,-0.667462
1421714512568.00,-3.7199144,-11.19941,-0.80622345
1421714512591.00,-4.240382,-10.446925,-1.6452287
1421714512650.00,-5.4000206,-9.577983,-0.5457651
1421714512651.00,-6.4628105,-8.75679,0.7243437
1421714512652.00,-6.740932,-8.121062,1.5525714
1421714512675.00,-6.816076,-8.664283,0.7499405
1421714512686.00,-6.0872416,-8.918304,-0.7550299
1421714512706.00,-3.9737864,-8.798703,-1.2572355
1421714512726.00,-2.5430617,-9.092392,-0.6592291
1421714512751.00,-1.9827768,-8.672366,0.006436615
1421714512766.00,-2.6473947,-7.7486367,0.34593064
1421714512786.00,-3.2856674,-7.2763686,-0.065114595
1421714512806.00,-3.0768516,-7.3875875,-0.9514215
1421714512827.00,-2.634222,-7.7607613,-1.3843213
1421714512846.00,-2.2189856,-7.989935,-1.4367124
1421714512865.00,-1.9978954,-7.932305,-1.6595988
1421714512886.00,-1.9329305,-7.579638,-1.9014958
1421714512979.00,-1.8435663,-7.1578155,-1.6465759
1421714512979.00,-1.8796413,-7.3351965,-0.9659413
1421714512980.00,-1.6241226,-7.413783,-1.1452684
1421714512981.00,-1.5655943,-7.7396555,-2.256857
1421714513001.00,-1.0349479,-7.9622426,-3.6178267
1421714513005.00,-0.3159929,-8.429272,-4.8168335
1421714513026.00,0.3797603,-8.985215,-5.3164945
1421714513047.00,0.5840854,-9.6725855,-4.5011396
1421714513068.00,0.603994,-10.245444,-4.136947
1421714513108.00,-0.3980223,-10.447973,-4.422703
1421714513109.00,-0.95695996,-10.461894,-4.940925
1421714513126.00,-1.7500108,-9.340277,-5.277276
1421714513146.00,-3.2314801,-8.653206,-4.5930486
1421714513166.00,-3.901786,-9.413026,-3.6019597
1421714513185.00,-3.9799237,-9.776918,-1.9173628
1421714513206.00,-3.7232075,-12.861704,-1.8097366
1421714513285.00,-4.1335044,-15.822098,-3.121908
1421714513286.00,-5.327272,-11.586057,-5.046306
1421714513287.00,-5.8187,-6.314469,-1.8217118
1421714513288.00,-5.9191413,-3.4971776,3.5866914
1421714513311.00,-4.9657736,-3.734135,4.866979
1421714513326.00,-3.2509396,-6.423742,2.9246182
1421714513347.00,0.3610492,-13.031751,2.0546274
1421714513366.00,2.3881338,-14.322067,0.6186635
1421714513386.00,0.9792636,-11.686498,0.20327729
1421714513416.00,-1.5034735,-9.7288685,0.98195803
1421714513426.00,-3.3423994,-8.806337,1.5516733
1421714513446.00,-3.8755906,-8.597522,1.2430152
1421714513467.00,-3.253185,-9.699679,1.213227
1421714513485.00,-2.5951533,-9.884096,0.9713301
1421714513506.00,-2.1727319,-9.282946,0.80113405
1421714513526.00,-1.7561481,-9.303453,1.1979588
1421714513546.00,-1.5286212,-9.39626,1.0300081
1421714513618.00,-1.0219249,-9.551937,1.4624588
1421714513620.00,-0.9607022,-9.995764,1.7404307
1421714513621.00,-1.1524534,-9.771231,1.6717236
1421714513657.00,-1.3876145,-9.517658,0.5188211
1421714513660.00,-1.2804374,-9.495055,-0.24354355
1421714513666.00,-0.7336244,-9.742939,-0.3968248
1421714513687.00,-0.1817221,-9.672735,0.45550278
1421714513707.00,-0.3384462,-9.646689,0.9779164
1421714513727.00,-0.4816983,-9.896071,1.165626
1421714513763.00,-0.18860778,-9.810449,0.13187577
1421714513767.00,0.0889151,-9.988279,-0.95531344
1421714513786.00,-0.034278717,-10.08393,-1.0767109
1421714513806.00,-0.36194733,-10.203232,-1.0659333
1421714513828.00,-0.7524852,-9.998458,-1.239722
1421714513846.00,-0.81026506,-10.31505,-0.88885164
1421714513867.00,-1.2005036,-10.997031,-0.8994795
1421714513925.00,-2.0459454,-11.788885,-2.414479
1421714513926.00,-3.1100826,-13.270205,-4.7392945
1421714513927.00,-3.785927,-14.081966,-3.0340407
1421714513960.00,-4.0667434,-13.543087,-2.4056475
1421714513967.00,-4.252956,-12.015064,-3.2811768
1421714513986.00,-5.435347,-11.243568,-1.9402652
1421714514005.00,-6.575227,-10.193502,1.4153068
1421714514026.00,-6.4945445,-8.957223,2.9542565
1421714514047.00,-3.53445,-9.478589,5.3521204
1421714514096.00,-2.55354,-9.220825,0.43110353
1421714514098.00,-1.198857,-10.6624775,-3.6799476
1421714514106.00,-0.565524,-10.101744,-1.413361
1421714514126.00,-1.6661851,-8.255333,0.09595047
1421714514146.00,-2.3358924,-6.136489,1.2331357
1421714514166.00,-2.4313939,-5.048252,1.0261161
1421714514186.00,-2.7223887,-4.773274,0.30880782
1421714514206.00,-3.2549813,-5.039121,-0.3330574
1421714514277.00,-3.4802628,-5.6907163,-0.569865
1421714514278.00,-3.4423914,-5.7380176,-0.5195696
1421714514279.00,-2.588118,-6.123167,-0.7764354
1421714514309.00,-1.8497036,-8.738977,-1.0749147
1421714514310.00,-0.4297563,-10.614428,-1.574875
1421714514326.00,1.6739689,-11.902648,-4.5496387
1421714514345.00,4.1588016,-11.9867735,-6.4505363
1421714514365.00,1.9076331,-10.519075,-4.0688386
1421714514391.00,-1.2222084,-9.110355,-1.9716998
1421714514407.00,-2.133214,-8.349637,-0.9645941
1421714514425.00,-2.5478518,-8.982671,-0.4816983
1421714514445.00,-2.3141875,-10.393337,-1.0897338
1421714514466.00,-2.2915847,-13.04133,-2.122586
1421714514485.00,-2.336192,-14.341377,-2.8639944
1421714514506.00,-3.3545241,-11.294164,-5.3004775
1421714514525.00,-3.2419584,-7.459288,-0.27887008
1421714514580.00,-3.5802548,-5.99653,3.6169286
1421714514581.00,-2.8840525,-7.268884,4.50593
1421714514607.00,-1.9414628,-9.518406,3.072361
1421714514608.00,-0.34548157,-11.40149,0.53783154
1421714514626.00,1.2005036,-11.747721,-0.94363767
1421714514645.00,-0.066162415,-10.436148,-0.61252624
1421714514665.00,-1.7383351,-9.479637,0.7222481
1421714514685.00,-2.562671,-9.250014,0.30835876
1421714514705.00,-2.2659879,-9.645193,0.69246
1421714514745.00,-1.6067587,-9.88709,0.508792
1421714514748.00,-1.1100916,-9.88709,0.30850846
1421714514767.00,-1.287323,-9.557775,0.33171022
1421714514786.00,-1.608555,-8.937465,-0.1540297
1421714514805.00,-1.3754897,-9.03102,-0.80113405
1421714514826.00,-0.88181627,-9.274264,-1.700913
1421714514897.00,-0.8655002,-9.285192,-2.459685
1421714514901.00,-0.606389,-9.013356,-4.042494
1421714514902.00,-0.37182677,-8.135432,-4.48647
1421714514928.00,-0.80397815,-6.9048414,-2.485282
1421714514930.00,-1.751358,-5.8776774,-0.22258712
1421714514948.00,-1.7859361,-6.599027,0.22258712
1421714514965.00,-0.8491841,-8.201145,-0.78227323
1421714514987.00,-0.556842,-8.35293,-0.66342044
1421714515006.00,-0.685724,-7.4751554,0.94872713
1421714515040.00,-0.92657316,-7.318581,1.4058765
1421714515046.00,-1.1121871,-9.261241,-0.048948213
1421714515066.00,0.02799179,-10.611583,-1.9974463
1421714515086.00,0.061522063,-9.989028,-1.4271322
1421714515106.00,-0.53828067,-9.650432,-0.41329056
1421714515130.00,-1.4715898,-9.096284,-0.5354366
1421714515147.00,-2.159709,-8.135881,0.3716771
1421714515172.00,-1.3573773,-9.041498,-1.2073892
1421714515276.00,-1.1431727,-11.2953615,-2.9340487
1421714515277.00,-0.9213341,-12.23855,-5.0512457
1421714515278.00,-0.22273682,-14.711408,-7.2763686
1421714515279.00,-0.9798624,-18.467398,-7.7338176
1421714515280.00,-3.7717066,-19.068546,-6.0472746
1421714515311.00,-5.6529946,-14.592256,-1.2856765
1421714515313.00,-5.380561,-10.021211,-0.060923308
1421714515327.00,-3.6452198,-7.1043763,-0.6996451
1421714515376.00,-3.6721637,-7.1404514,-2.4664211
1421714515378.00,-4.0420446,-9.09823,-2.973267
1421714515386.00,-4.835844,-9.274115,-3.0758038
1421714515406.00,-4.493805,-8.690628,-2.7382557
1421714515426.00,-3.744613,-7.911049,-1.9700532
1421714515445.00,-2.9717703,-6.4882574,-1.5606546
1421714515466.00,-2.676584,-5.197342,-1.7754579
1421714515552.00,-3.0946646,-4.5060797,-1.8483564
1421714515553.00,-3.3953893,-4.017196,-1.5528708
1421714515554.00,-3.01997,-3.0740075,-1.0937755
1421714515558.00,-2.2170396,-2.271227,-0.7857161
1421714515592.00,-1.9146684,-1.8212627,0.023950195
1421714515594.00,-1.7345929,-2.1865032,0.73856413
1421714515606.00,-1.0855426,-4.690496,0.2890489
1421714515626.00,0.850681,-9.404044,-0.9678873
1421714515645.00,3.062332,-13.562696,-3.2051349
1421714515666.00,4.5436516,-13.009148,-3.1903157
1421714515685.00,3.1883698,-10.2828665,-4.194577
1421714515716.00,0.28081605,-10.900482,-7.2874455
1421714515726.00,-1.9068847,-12.389735,-7.748936
1421714515748.00,-3.3275802,-10.909015,-5.9644966
1421714515766.00,-4.5408072,-8.646469,-5.118157
1421714515786.00,-5.4741163,-7.1076694,-5.207072
1421714515805.00,-4.7759686,-7.8381505,-4.7601013
1421714515829.00,-5.0958533,-10.251881,-2.4983048
1421714515897.00,-4.7868958,-13.333074,0.7927515
1421714515898.00,-2.9925768,-14.979051,-0.5599855
1421714515899.00,-0.8301737,-18.670074,-8.50172
1421714515919.00,0.74919206,-16.467556,-2.479893
1421714515926.00,-3.1448104,-9.284742,6.0876904
1421714515947.00,-3.203638,-8.517737,7.863747
1421714515966.00,-2.4809408,-12.2416935,6.1813955
1421714515985.00,-2.1276755,-13.511951,-0.03727249
1421714516006.00,-0.23082,-13.529615,-2.8690836
1421714516038.00,-0.101488955,-11.24761,-0.64845157
1421714516046.00,-1.2337345,-8.811726,1.0835967
1421714516066.00,-1.5736775,-7.66511,0.78691363
1421714516089.00,-1.5048207,-7.8833566,-0.3903882
1421714516106.00,-1.0165361,-8.525671,-1.2778926
1421714516126.00,-0.56627244,-8.673413,-1.5278728
1421714516146.00,-0.65773225,-8.765922,-2.0428019
1421714516217.00,-0.43978545,-8.869206,-3.682043
1421714516218.00,0.44158173,-8.612491,-4.7858477
1421714516219.00,0.4206253,-8.430169,-3.9642065
1421714516246.00,0.11496094,-8.341703,-2.6228456
1421714516247.00,0.010777588,-8.02601,-2.3665786
1421714516266.00,0.011376343,-7.9489202,-1.6651373
1421714516286.00,0.434247,-7.659422,-1.2422667
1421714516308.00,-0.09460327,-8.344697,-0.21570145
1421714516338.00,-1.2726535,-8.937764,-0.35326537
1421714516347.00,-0.38365218,-8.793763,-2.8568091
1421714516366.00,0.20118164,-7.476203,-2.5527914
1421714516386.00,-1.5775695,-7.5179663,-0.16450791
1421714516406.00,-2.131717,-8.355924,-0.026045837
1421714516426.00,-1.1731105,-9.197024,-1.2120296
1421714516447.00,-0.40146515,-9.659713,-1.289718
1421714516466.00,-0.043858796,-10.387349,-1.6161891
1421714516528.00,-0.51298326,-10.323582,-1.1415262
1421714516529.00,-0.7445517,-9.509575,-1.511407
1421714516530.00,-0.70009416,-10.03588,-2.600542
1421714516558.00,-0.42646316,-10.953023,-2.1953347
1421714516571.00,0.29353958,-11.183544,-3.8788838
1421714516586.00,1.0663824,-13.129348,-5.655539
1421714516607.00,-0.49127838,-17.25492,-6.43422
1421714516626.00,-2.6363177,-19.11555,-5.7627163
1421714516648.00,-4.235442,-15.942298,-2.2020707
1421714516684.00,-4.50099,-11.986624,-0.8981323
1421714516686.00,-2.928061,-8.376431,-0.5167255
1421714516705.00,-1.9209553,-7.129225,-2.2189856
1421714516726.00,-1.7097446,-8.436905,-3.2925532
1421714516746.00,-2.128424,-8.706644,-2.9017158
1421714516767.00,-1.9943029,-8.00191,-1.3864169
1421714516786.00,-1.5269747,-7.1980815,-0.9620494
1421714516854.00,-1.7497115,-5.22234,-1.5810122
1421714516855.00,-2.5089326,-4.14024,-1.8353333
1421714516856.00,-3.0448182,-4.24128,-1.7949175
1421714516886.00,-3.278183,-4.5229945,-1.7622854
1421714516887.00,-3.69312,-4.9734077,-1.403182
1421714516906.00,-4.0338116,-5.577701,-1.1084449
1421714516926.00,-3.7332368,-5.962401,-0.9963281
1421714516946.00,-2.9352462,-5.5640793,-0.9960287
1421714516966.00,-1.7106427,-6.9364257,-0.67195266
1421714516993.00,-0.2665956,-8.641081,-1.3653108
1421714517021.00,0.7924521,-11.1585455,-2.696792
1421714517026.00,1.4117143,-11.458971,-3.0737083
1421714517047.00,1.8311421,-10.004894,-2.8508217
1421714517066.00,2.0377126,-9.401649,-3.0514045
1421714517086.00,1.1966116,-9.979897,-3.6726127
1421714517106.00,-0.255818,-9.981693,-3.4129028
1421714517126.00,-1.4926959,-9.567654,-3.6531532
1421714517196.00,-1.6326549,-8.279732,-4.264482
1421714517197.00,-1.2509487,-8.067473,-3.7932618
1421714517198.00,-1.6736696,-8.090975,-1.8839822
1421714517232.00,-2.6346712,-8.813822,-0.8183482
1421714517233.00,-4.6047244,-10.818603,-3.3470397
1421714517247.00,-5.2087183,-12.2714815,-5.8164544
1421714517266.00,-2.4441175,-12.537179,-0.420775
1421714517286.00,-0.023052063,-11.839629,0.558788
1421714517320.00,0.13606705,-16.784746,-1.6730708
1421714517327.00,2.0652552,-19.125578,-11.957884
1421714517345.00,-0.7629634,-12.484938,1.0341994
1421714517366.00,-3.468138,-8.087382,5.558391
1421714517386.00,-3.2371683,-8.8388195,5.9794655
1421714517406.00,-2.994373,-11.077564,3.5399885
1421714517427.00,-1.7944684,-12.612473,-0.41403902
1421714517446.00,0.8785231,-12.10398,-2.7318192
1421714517468.00,-0.20148101,-10.028246,-0.29922774
1421714517550.00,-1.3262421,-8.57896,1.1946657
1421714517551.00,-1.3230987,-8.123457,0.33994308
1421714517553.00,-1.2795392,-8.536598,-0.22004242
1421714517554.00,-1.0563533,-9.075777,-0.45595184
1421714517578.00,-0.6604266,-8.907976,-1.2178674
1421714517586.00,-0.5369334,-8.709639,-1.8103354
1421714517606.00,-0.13217515,-8.523874,-1.9574794
1421714517626.00,0.22632934,-8.82894,-2.5107288
1421714517648.00,-0.11106903,-9.253607,-1.8694625
1421714517666.00,-0.2826123,-8.788225,-0.86325485
1421714517686.00,-0.77718383,-8.288863,-0.8044272
1421714517706.00,-0.16316071,-7.6755886,-2.757865
1421714517726.00,0.6746471,-7.5922117,-2.4806414
1421714517750.00,0.3570076,-7.3585477,-1.5167958
1421714517844.00,-0.12948075,-8.6032095,-2.364932
1421714517846.00,-1.0506651,-8.618178,-0.6951544
1421714517848.00,-1.4199471,-7.8909907,0.038170625
1421714517848.00,-0.7033873,-8.193063,-1.479224
1421714517849.00,-0.70772827,-8.493637,-0.9172925
1421714517876.00,-0.7747888,-8.808433,-0.7114705
1421714517887.00,-0.71596116,-9.546847,-1.2090358
1421714517910.00,-0.9533675,-9.0832615,-0.42481658
1421714517928.00,-0.33275804,-9.410331,-0.6053412
1421714517949.00,-0.55669236,-9.905651,-1.1234138
1421714517976.00,-0.49726593,-10.154882,-1.5446379
1421714517986.00,-0.11061996,-10.810669,-2.1920416
1421714518006.00,0.45265868,-11.212883,-2.3376887
1421714518026.00,0.48514116,-11.798016,-3.0097911
1421714518049.00,0.60683805,-13.500575,-4.1689806
1421714518066.00,0.059276734,-17.723293,-5.947283
1421714518086.00,-3.2768357,-17.851128,-5.209916
1421714518106.00,-3.8613703,-14.453644,-2.2797592
1421714518128.00,-3.412753,-11.173814,-0.99438214
1421714518188.00,-2.8027716,-9.040001,-0.23590942
1421714518190.00,-1.9969972,-8.134833,-1.3835728
1421714518190.00,-2.095642,-10.558145,-5.037175
1421714518209.00,-2.2338047,-11.662249,-3.716322
1421714518226.00,-2.0419037,-9.609567,-1.9475999
1421714518247.00,-1.343606,-7.8311152,-2.1637504
1421714518266.00,-1.4102174,-6.029761,-2.5700057
1421714518286.00,-2.5634193,-4.420458,-2.7505302
1421714518315.00,-3.6082466,-4.2246647,-2.5423133
1421714518326.00,-3.9323227,-4.706363,-2.0718415
1421714518346.00,-3.522924,-4.632716,-1.4010864
1421714518366.00,-3.0567935,-4.221072,-1.1677217
1421714518386.00,-2.9205766,-3.5563047,-1.5073655
1421714518407.00,-2.3393354,-3.0023067,-1.0832973
1421714518426.00,-1.7187259,-2.6077273,-0.23052064
1421714518449.00,-0.8440947,-3.12086,0.07140152
1421714518523.00,0.23531067,-6.7038093,-0.5755531
1421714518525.00,2.9144394,-11.622431,-2.8077114
1421714518526.00,4.68376,-15.656093,-3.7751496
1421714518527.00,4.902755,-14.616804,-3.6670742
1421714518546.00,3.8058357,-10.02645,-5.8704925
1421714518566.00,1.2949572,-9.745185,-5.7023916
1421714518586.00,-0.44352767,-10.211615,-4.083209
1421714518607.00,-1.6690292,-9.871372,-3.078199
1421714518639.00,-2.9903316,-8.840017,-3.1976504
1421714518646.00,-3.5539095,-7.8550653,-4.746629
1421714518670.00,-4.137097,-7.613767,-5.577102
1421714518686.00,-5.090614,-8.509055,-4.893025
1421714518706.00,-5.2870054,-11.014096,-0.75967026
1421714518727.00,-5.051096,-13.86387,3.080145
1421714518830.00,-3.8166132,-14.809005,0.6993457
1421714518830.00,0.47990203,-18.259779,-5.4675303
1421714518831.00,3.1883698,-17.446072,-1.9236498
1421714518832.00,-0.97462326,-10.716515,3.197351
1421714518832.00,-3.6571949,-9.485924,5.902825
1421714518862.00,-4.147276,-10.971285,5.5375843
1421714518866.00,-4.7223797,-12.2135515,2.571802
1421714518886.00,-0.8804691,-13.058844,-2.1724324
1421714518906.00,1.0963202,-11.478431,-2.2044659
1421714518926.00,-0.14040802,-9.660162,0.055235136
1421714518949.00,-1.2078383,-8.570128,-0.4327501
1421714519000.00,-1.5004797,-7.595206,-0.8175998
1421714519000.00,-1.0195298,-7.0639606,-0.7355704
1421714519006.00,-0.8815169,-7.404203,-1.6202307
1421714519026.00,-0.48020142,-8.086933,-2.9196784
1421714519046.00,0.5673202,-7.959099,-3.8149667
1421714519065.00,1.2775933,-6.8931656,-4.400399
1421714519085.00,1.3663586,-6.7570987,-3.8962476
1421714519135.00,-0.35326537,-7.8788657,-2.3682253
1421714519136.00,-0.73212755,-8.212372,-1.2189152
1421714519176.00,0.5267546,-7.3413334,-2.2821543
1421714519177.00,-0.18082398,-5.9652452,-0.24803421
1421714519190.00,-0.5054988,-8.375234,-0.36748582
1421714519208.00,-0.37003052,-10.537038,-0.8649014
1421714519227.00,-0.65204406,-9.358988,-1.1210189
1421714519246.00,-0.78885955,-9.358089,-1.4310242
1421714519266.00,-0.70398605,-9.450598,-1.0885364
1421714519286.00,-1.1942166,-9.086105,0.0477507
1421714519316.00,-0.73572004,-10.246642,-0.67105454
1421714519326.00,-0.2562671,-10.817704,-1.6420853
1421714519346.00,0.14819184,-11.640393,-2.2863455
1421714519366.00,0.07229965,-11.022927,-1.7190253
1421714519386.00,0.89962924,-11.408376,-2.3179297
1421714519458.00,0.959355,-16.652422,-5.8752823
1421714519459.00,-3.2927027,-19.152672,-7.410041
1421714519460.00,-5.518724,-15.94634,-4.798721
1421714519535.00,-5.387297,-12.610975,-3.7597315
1421714519540.00,-3.7208126,-11.110795,-2.2314098
1421714519541.00,-2.3942711,-9.912237,-0.8137079
1421714519541.00,-2.652634,-9.355395,-1.9782861
1421714519566.00,-3.0749056,-8.769814,-3.1446607
1421714519573.00,-2.894381,-8.537646,-3.2004945
1421714519607.00,-2.285597,-7.7903996,-2.5292902
1421714519609.00,-1.8429675,-6.6422873,-1.631607
1421714519630.00,-2.440974,-4.6634026,-1.2928615
1421714519649.00,-3.1103818,-3.0767019,-1.4136603
1421714519666.00,-3.6721637,-2.8692334,-1.6116985
1421714519689.00,-3.9414537,-3.3950899,-1.2014017
1421714519707.00,-3.4489777,-3.9986348,-1.1216176
1421714519726.00,-2.759362,-4.2748103,-0.6652167
1421714519748.00,-2.186952,-4.0248303,-0.8734337
1421714519832.00,-1.7449214,-3.8007462,-0.38829255
1421714519833.00,-1.0168355,-5.1702485,-0.124241635
1421714519834.00,-0.25911117,-11.430381,-1.2822336
1421714519835.00,2.9672794,-13.776901,-2.3040087
1421714519858.00,4.0209384,-11.711495,-2.2417383
1421714519868.00,3.6208205,-9.563313,-3.5230737
1421714519886.00,2.0327728,-9.509725,-5.263355
1421714519906.00,0.04430786,-9.806258,-5.059329
1421714519926.00,-0.9261241,-9.806258,-4.9943643
1421714519946.00,-2.7066715,-9.514066,-5.441784
1421714519966.00,-4.990622,-8.629106,-5.138215
1421714519986.00,-5.463788,-7.708969,-5.434599
1421714520009.00,-4.764891,-8.184081,-3.299289
1421714520026.00,-3.286865,-10.246792,1.4193485
1421714520046.00,-1.5778688,-13.778697,3.2385154
1421714520121.00,0.5840854,-15.42168,-2.1149518
1421714520122.00,2.1853056,-18.769918,-9.416618
1421714520123.00,0.99213684,-15.623461,-2.9846435
1421714520137.00,-4.22691,-9.3365345,4.950655
1421714520146.00,-5.1489925,-7.834109,6.1439734
1421714520166.00,-4.5120673,-10.227182,5.243596
1421714520186.00,-3.7366796,-12.52236,1.2350817
1421714520206.00,0.14250366,-13.146112,-1.667233
1421714520229.00,1.7077986,-12.460538,-1.1996055
1421714520246.00,0.30386811,-10.660681,-0.47840515
1421714520270.00,-1.6082556,-8.623418,-1.4174025
1421714520287.00,-2.4834855,-7.5987983,-1.2129277
1421714520306.00,-2.1674926,-6.717581,-0.8384065
1421714520326.00,-1.5697856,-6.8135314,-0.83286804
1421714520346.00,-0.95636123,-6.136489,-0.29159364
1421714520368.00,-0.45684996,-5.5562954,0.7087761
1421714520387.00,0.0809816,-7.335496,-1.4142591
1421714520456.00,0.70683014,-7.9709244,-3.1157708
1421714520458.00,0.21435425,-6.6557593,-1.7860858
1421714520459.00,-0.6033952,-7.803722,-2.4530988
1421714520468.00,-0.84843564,-9.094039,-0.26509872
1421714520486.00,-0.6592291,-8.734786,-0.20866607
1421714520506.00,0.7753876,-9.570498,-1.0832973
1421714520526.00,1.0214758,-10.082134,-0.13621673
1421714520546.00,0.04924759,-10.327324,-1.1070977
1421714520568.00,-0.54606444,-9.576036,-1.0380913
1421714520587.00,-0.28066635,-9.065,-1.0412347
1421714520606.00,0.318837,-10.695409,-1.7750088
1421714520626.00,0.68752027,-11.452535,-3.1811848
1421714520650.00,0.07708969,-13.015434,-5.077441
1421714520667.00,-1.4687457,-16.785944,-5.5169277
1421714520686.00,-3.7634737,-18.61993,-5.217251
1421714520706.00,-5.882168,-16.906742,-3.2885115
1421714520763.00,-6.343808,-14.034515,-0.94363767
1421714520765.00,-5.6297927,-11.664943,-1.1482621
1421714520779.00,-3.814817,-11.859688,-0.88570815
1421714520787.00,-2.533781,-11.703114,-3.1419663
1421714520806.00,-4.098178,-10.085577,-2.403402
1421714520827.00,-5.3708315,-8.196056,-2.1219873
1421714520847.00,-3.2049851,-7.105125,-0.5629793
1421714520866.00,-0.791554,-6.4039826,-0.5312453
1421714520887.00,-1.9246975,-6.6807575,0.085023195
1421714520906.00,-3.6862345,-5.3313136,0.18830842
1421714520926.00,-4.6129575,-3.789819,-0.42287064
1421714520946.00,-4.02498,-3.4838552,-0.7918533
1421714520967.00,-2.976261,-3.4567616,-1.0958711
1421714520987.00,-1.9868184,-3.906277,-1.7030085
1421714521006.00,-1.0151889,-6.673722,-2.4700136
1421714521026.00,0.36943176,-9.315429,-4.029321
1421714521090.00,0.6391708,-11.845617,-6.2762985
1421714521093.00,1.5039226,-12.383149,-7.8257265
1421714521094.00,3.8573287,-11.024425,-7.8198886
1421714521106.00,3.7833824,-10.827884,-6.9392695
1421714521129.00,0.14923966,-9.448052,-5.307214
1421714521146.00,-1.327739,-9.763746,-3.2418087
1421714521166.00,-0.79170364,-11.923605,-5.1904564
1421714521186.00,-1.9603235,-12.348571,-7.0504885
1421714521207.00,-4.832102,-12.995825,-0.26255402
1421714521227.00,-6.208639,-12.501553,-1.5317646
1421714521246.00,-4.684808,-9.222322,-5.7703505
1421714521266.00,-4.9576902,-6.234685,0.14624588
1421714521286.00,-5.844596,-4.9302974,4.3893223
1421714521306.00,-5.7261925,-6.146668,4.9361353
1421714521326.00,-4.111201,-9.272468,3.8308337
1421714521346.00,-0.7946974,-11.726315,3.854185
1421714521366.00,2.8409421,-12.893438,0.010328522
1421714521431.00,2.3291564,-11.092533,-1.3269905
1421714521432.00,-1.0735675,-9.613608,1.1771522
1421714521433.00,-3.447032,-9.088799,1.5269747
1421714521446.00,-3.59702,-9.534872,1.027164
1421714521467.00,-2.961292,-9.484577,0.91519684
1421714521486.00,-2.142345,-9.118737,1.0904824
1421714521512.00,-1.7265097,-9.217382,1.9152672
1421714521527.00,-1.2401711,-9.6035795,2.205364
1421714521547.00,-0.37122804,-9.832603,2.3920257
1421714521566.00,0.1181044,-9.539662,1.9890637
1421714521586.00,0.41314086,-9.53622,2.040407
1421714521606.00,0.31823823,-9.529633,1.6465759
1421714521626.00,0.3197351,-9.42066,1.4662011
1421714521653.00,0.603994,-9.498049,0.8731343
1421714521667.00,0.8637039,-9.731264,0.37003052
1421714521686.00,0.6629713,-9.790241,0.1499881
1421714521706.00,0.5017566,-10.311458,-0.0955014
1421714521788.00,0.84843564,-10.7171135,-0.1672023
1421714521790.00,0.9222322,-10.74286,-0.27393037
1421714521791.00,0.007484436,-10.355466,-1.1032059
1421714521792.00,-1.1484119,-10.140363,-1.081052
1421714521806.00,-1.5626006,-10.076895,-0.88735473
1421714521827.00,-1.2380754,-10.9641,-2.7306216
1421714521846.00,-0.90052736,-12.941488,-3.225792
1421714521869.00,-2.4929159,-13.359119,-0.4472699
1421714521887.00,-3.473976,-12.447366,-0.82613206
1421714521910.00,-3.9204972,-11.561358,-2.878065
1421714521926.00,-4.923412,-11.822116,-2.2320085
1421714521946.00,-6.1674747,-11.236533,0.45565248
1421714521967.00,-6.7216225,-10.342592,2.1691391
1421714521988.00,-7.017856,-9.3083935,2.8975246
1421714522007.00,-6.6830025,-9.544751,2.5849745
1421714522076.00,-6.63151,-9.013656,-0.07933502
1421714522077.00,-0.92971665,-10.409802,-2.7279272
1421714522078.00,0.98510146,-9.532477,-1.3430072
1421714522090.00,0.35401383,-7.976463,1.2976515
1421714522108.00,-0.91130495,-6.8514023,0.93765014
1421714522127.00,-1.6928297,-6.6921334,0.07858658
1421714522146.00,-1.7106427,-6.8470616,-0.1951941
1421714522167.00,-1.563349,-6.654113,-0.07574249
1421714522187.00,-1.4350657,-5.5495596,0.24504043
1421714522206.00,-1.096919,-5.56857,-0.49816406
1421714522229.00,-1.0383906,-5.9487796,-1.299298
1421714522249.00,-0.20013382,-7.39133,-2.8041189
1421714522266.00,-0.16974701,-8.027207,-4.8840437
1421714522287.00,0.46508285,-9.344169,-8.609646
1421714522307.00,0.07679031,-10.740765,-10.067764
1421714522400.00,-0.21300705,-10.330617,-5.552404
1421714522401.00,-0.77419007,-9.750873,-1.6949254
1421714522402.00,-0.8707393,-9.544901,0.11960129
1421714522403.00,-0.62135786,-10.122999,-1.1154803
1421714522426.00,-2.3411317,-11.632461,-2.3113434
1421714522428.00,-6.5184946,-15.602505,-5.902675
1421714522468.00,-4.9639773,-10.892998,-3.6711159
1421714522469.00,-4.1161404,-6.733298,2.0100203
1421714522522.00,-4.3521996,-6.098618,3.5687287
1421714522524.00,-3.2322285,-7.745493,3.3855097
1421714522527.00,-1.8037491,-10.253528,2.681823
1421714522548.00,0.8704399,-12.558734,0.5954617
1421714522570.00,3.1681619,-12.183614,-1.1967614
1421714522587.00,0.5640271,-10.201885,-1.4952407
1421714522607.00,-2.042353,-9.152417,-0.29219237
1421714522627.00,-2.996319,-8.897347,0.5249584
1421714522649.00,-2.6622138,-9.026679,-0.3492238
1421714522666.00,-1.5503261,-9.479937,-0.56193143
1421714522762.00,-1.1478131,-9.657766,-0.34787658
1421714522763.00,-1.2404704,-9.329799,0.17842895
1421714522764.00,-1.1081456,-9.461076,0.04924759
1421714522766.00,-0.77433974,-9.828562,-0.19953507
1421714522767.00,-0.4899312,-9.673783,-1.3219011
1421714522787.00,-0.4315526,-9.583072,-1.6754658
1421714522806.00,-0.35910323,-9.735306,-1.3304334
1421714522826.00,-0.6873706,-9.13191,-1.4310242
1421714522848.00,-0.41358992,-8.7632265,-2.4945626
1421714522866.00,-0.2694397,-8.6048565,-3.3711398
1421714522887.00,-0.4152365,-8.948991,-3.6914735
1421714522907.00,-0.7854167,-8.181237,-1.3953983
1421714522926.00,-1.3471985,-7.452253,0.7912546
1421714522948.00,-0.823737,-7.3910303,-0.6318361
1421714522968.00,-0.027542725,-7.331604,-1.805695
1421714522988.00,-0.6345305,-8.342302,-0.38050872
1421714523045.00,-1.2513977,-9.00213,-0.5682184
1421714523046.00,-1.145418,-9.112001,-0.93091416
1421714523047.00,-0.8595126,-8.017628,-1.6175363
1421714523066.00,-0.531844,-7.8309655,-1.6675323
1421714523086.00,-0.6692583,-8.093968,-1.2099339
1421714523107.00,-2.2948778,-8.725655,0.32602203
1421714523126.00,-1.8169217,-9.456735,0.68781966
1421714523146.00,0.93735075,-10.434352,-1.280587
1421714523168.00,1.1039543,-10.775791,-1.2105327
1421714523187.00,0.20716919,-9.493408,-0.54322034
1421714523206.00,0.3221301,-9.052575,-1.4244379
1421714523226.00,0.7649094,-9.789942,-1.99565
1421714523246.00,0.41613466,-11.191926,-1.5763719
1421714523266.00,-0.05852829,-12.198583,-3.0202694
1421714523286.00,-0.778531,-13.493989,-4.036506
1421714523306.00,-2.5731492,-17.37437,-5.254074
1421714523327.00,-4.806954,-17.71596,-5.5658755
1421714523381.00,-5.306016,-14.094541,-2.8663893
1421714523382.00,-4.8870373,-11.1127405,-0.50040936
1421714523392.00,-3.515739,-9.787098,0.34069154
1421714523407.00,-2.216441,-10.588082,-1.4126124
