time_milisec,ax,ay,az
1421715015372.00,-1.104104,3.9788759,9.012609
1421715015392.00,-1.0503658,3.9465432,8.937315
1421715015405.00,-1.0892848,4.162095,8.738229
1421715015424.00,-1.0991642,4.2519083,8.847801
1421715015444.00,-1.2201128,4.1921825,9.008118
1421715015464.00,-1.1418256,4.3349853,9.068892
1421715015483.00,-1.1505075,4.3084903,9.180409
1421715015504.00,-1.1572435,4.3498044,9.31468
1421715015524.00,-1.1630814,4.214785,9.396111
1421715015543.00,-1.069975,4.2174797,9.257499
1421715015564.00,-1.2304413,4.086053,8.898096
1421715015584.00,-1.1091934,4.170178,8.664283
1421715015606.00,-1.0840458,4.0685396,8.62716
1421715015624.00,-1.1440709,4.061354,8.75679
1421715015644.00,-0.99977094,4.2513094,8.82415
1421715015664.00,-1.041085,4.1031175,8.957373
1421715015684.00,-1.0912308,4.19338,9.031918
1421715015703.00,-1.0479708,4.103417,9.089099
1421715015724.00,-0.99303496,4.0805144,9.2046585
1421715015744.00,-1.0562036,4.101471,8.910521
1421715015764.00,-1.0407857,4.17886,8.830586
1421715015784.00,-1.1207194,4.2602906,8.85783
1421715015804.00,-1.2513977,4.2790017,9.020243
1421715015825.00,-1.0479708,4.3372307,9.190887
1421715015844.00,-1.2862751,4.3084903,9.147179
1421715015864.00,-1.2509487,4.075575,9.075927
1421715015884.00,-1.2323872,4.2507105,8.67012
1421715015904.00,-1.1770024,4.1309595,9.008417
1421715015924.00,-1.2711567,4.040697,9.126072
1421715015944.00,-1.2015513,4.0863523,9.220975
1421715015964.00,-1.0849439,4.2104445,9.021889
1421715015984.00,-1.1400293,4.272266,8.995094
1421715016004.00,-1.1166779,4.2022114,8.871601
1421715016024.00,-1.1470647,4.2939706,8.94929
1421715016062.00,-1.3141173,4.3637257,8.915909
1421715016064.00,-1.1768527,4.312981,9.125025
1421715016083.00,-1.1796968,4.2656794,9.129215
1421715016104.00,-1.1026071,4.2008643,9.140442
1421715016124.00,-1.0891352,4.175417,9.085656
1421715016144.00,-0.9951306,4.0501275,9.166039
1421715016164.00,-1.0330019,4.045038,9.066196
1421715016184.00,-1.1365864,4.1959248,8.94435
1421715016205.00,-0.9952803,4.2782536,8.899144
1421715016225.00,-1.1395802,4.266428,8.933573
1421715016244.00,-1.0891352,4.0902443,9.070987
1421715016265.00,-1.0303074,4.15955,9.028027
1421715016285.00,-1.052162,4.142186,9.113349
1421715016305.00,-1.1597883,4.1833506,9.018596
1421715016324.00,-1.2148737,4.0926394,9.128168
1421715016344.00,-1.2316388,4.292324,9.200467
1421715016365.00,-1.2419673,4.233197,9.109457
1421715016385.00,-1.2037967,4.282744,8.8702545
1421715016404.00,-1.2768447,4.2459207,9.094189
1421715016425.00,-1.3422588,4.400399,9.350006
1421715016444.00,-1.1542497,4.221072,9.1869955
1421715016464.00,-1.1780503,4.1366477,9.034463
1421715016484.00,-1.2237053,4.109704,9.049881
1421715016504.00,-1.1109897,4.059109,9.080418
1421715016526.00,-1.1940669,4.1222777,9.102122
1421715016544.00,-1.2546909,4.036506,9.105865
1421715016564.00,-1.2502002,4.0679407,9.032217
1421715016586.00,-1.1557466,4.0218368,8.966504
1421715016604.00,-1.1422746,4.2915754,9.027278
1421715016624.00,-1.2145743,4.149371,9.132509
1421715016643.00,-1.2033477,4.2376876,9.077273
1421715016664.00,-1.1165282,4.2369394,9.208401
1421715016684.00,-1.3154645,4.2785525,9.210347
1421715016704.00,-1.3900094,4.091292,8.984317
1421715016724.00,-1.1773018,4.25101,8.880433
1421715016743.00,-1.22146,4.2662783,8.729547
1421715016765.00,-1.0581496,4.181105,8.697064
1421715016784.00,-1.0083032,4.180806,8.851244
1421715016804.00,-1.0975177,4.2108936,9.029373
1421715016824.00,-1.1912228,4.2478666,9.039253
1421715016844.00,-1.1437715,4.1128473,9.241931
1421715016864.00,-1.0584489,4.0641985,9.096883
1421715016883.00,-0.98944247,4.0022273,9.003028
1421715016903.00,-0.94558364,4.1103024,8.994795
1421715016925.00,-1.0392888,4.036955,8.986114
1421715016953.00,-1.1925701,4.1766148,9.116343
1421715016965.00,-1.3804294,4.0686893,9.0937395
1421715016985.00,-1.2731025,4.148174,8.955577
1421715017003.00,-1.3254936,4.251459,8.914263
1421715017024.00,-1.3129197,4.2563987,8.981473
1421715017043.00,-1.337319,4.199218,9.077423
1421715017065.00,-1.4013858,4.264033,9.22801
1421715017084.00,-1.402733,4.2843904,9.013356
1421715017105.00,-1.4432987,4.1671844,9.102122
1421715017124.00,-1.3684543,4.275409,9.051377
1421715017206.00,-1.2822336,4.221821,8.830886
1421715017207.00,-1.1282039,4.256099,8.815168
1421715017207.00,-1.3602214,4.2608895,8.815767
1421715017208.00,-1.2510983,4.223168,8.870105
1421715017267.00,-1.2771442,4.157305,8.840766
1421715017269.00,-1.2629237,4.2563987,8.919801
1421715017270.00,-1.3711487,4.304449,8.948991
1421715017285.00,-1.2751982,4.13575,9.192684
1421715017330.00,-1.2552896,4.258644,9.250314
1421715017330.00,-1.2843292,4.2727146,9.210197
1421715017387.00,-1.1302996,4.388873,8.906329
1421715017388.00,-1.1326946,4.107908,8.831485
1421715017388.00,-1.1659255,4.2984614,8.973689
1421715017450.00,-1.3172607,4.350104,9.110804
1421715017450.00,-1.2341835,4.252806,9.162447
1421715017451.00,-1.1723621,4.390969,9.1114025
1421715017491.00,-1.2049942,4.1424856,8.928483
1421715017492.00,-1.201252,4.205804,8.869506
1421715017552.00,-1.1665242,4.214037,8.98746
1421715017561.00,-1.3111235,4.3463616,9.159902
1421715017562.00,-1.1737093,4.370761,9.077124
1421715017568.00,-1.1541001,4.2343946,8.919203
1421715017626.00,-1.1428734,4.226461,9.120534
1421715017627.00,-1.2446617,4.361031,9.045989
1421715017627.00,-1.1177257,4.2098455,9.104068
1421715017676.00,-1.0440788,4.0059695,8.881182
1421715017677.00,-1.1567944,4.1314087,8.870853
1421715017727.00,-1.3533357,4.289031,8.0999565
1421715017728.00,-1.5667919,4.6710367,8.968749
1421715017728.00,-1.3120216,3.8416114,9.350904
1421715017782.00,-1.4669495,4.358337,8.804241
1421715017784.00,-1.7173787,4.610263,9.155262
1421715017787.00,-1.3458513,4.5021877,9.188792
1421715017853.00,-1.2981006,4.5755353,8.908724
1421715017854.00,-1.4302757,4.7192364,8.625962
1421715017855.00,-1.4826667,4.674629,8.778645
1421715017865.00,-1.2852273,4.311634,9.087303
1421715017935.00,-1.3847704,4.2492137,9.092542
1421715017936.00,-1.3108242,4.2584944,9.042696
1421715017937.00,-1.2816348,4.3358836,8.982222
1421715017945.00,-1.1063493,4.3035507,8.885074
1421715017994.00,-1.017584,4.254303,8.852591
1421715018005.00,-1.1323951,4.481381,8.895252
1421715018006.00,-1.0226734,4.375551,8.960815
1421715018077.00,-1.0867401,4.282744,8.911269
1421715018078.00,-1.1466156,4.261488,9.094937
1421715018079.00,-1.13973,4.4129734,9.236543
1421715018113.00,-1.0184821,4.1541615,9.186696
1421715018114.00,-1.0615925,4.1191344,9.012758
1421715018124.00,-1.1433225,4.153862,8.852591
1421715018144.00,-1.0193802,4.0853047,8.972192
1421715018164.00,-0.8833131,4.1638913,9.079968
1421715018183.00,-0.84604067,4.0203395,9.070987
1421715018208.00,-0.68497556,3.9742355,8.893007
1421715018225.00,-0.78242296,4.03456,8.967552
1421715018245.00,-0.98450273,4.0031257,9.317524
1421715018263.00,-0.9491762,3.7968545,9.402099
1421715018284.00,-0.8955876,3.8510418,9.149873
1421715018305.00,-0.77987826,3.929778,9.070238
1421715018324.00,-0.9171428,4.0248303,9.049881
1421715018344.00,-0.7782317,3.9992335,8.900192
1421715018364.00,-0.84888476,4.0266266,8.92998
1421715018384.00,-0.95875627,4.1155415,9.018596
1421715018404.00,-0.9292676,4.142935,8.990753
1421715018423.00,-1.0487192,4.059558,9.123528
1421715018445.00,-1.2198133,4.3257046,9.191936
1421715018465.00,-1.3021421,4.291725,9.121133
1421715018484.00,-1.3629158,4.1685314,9.127569
1421715018504.00,-1.0999128,4.1848474,9.036259
1421715018524.00,-1.027613,4.374503,8.866512
1421715018547.00,-1.0026151,4.3237586,8.865165
1421715018565.00,-1.1148816,4.2694216,8.972192
1421715018587.00,-1.2070899,4.189937,9.080716
1421715018605.00,-1.1505075,4.183201,8.950637
1421715018626.00,-1.251248,4.27496,8.947344
1421715018645.00,-1.033451,4.3095384,8.654552
1421715018671.00,-1.3656102,4.5436516,9.339678
1421715018686.00,-1.1931688,4.1209307,8.882828
1421715018706.00,-1.3202546,4.211492,8.744965
1421715018733.00,-1.463806,4.375252,9.012758
1421715018774.00,-1.2760963,4.194128,9.154214
1421715018778.00,-1.1894265,4.1691303,9.147926
1421715018784.00,-1.1047027,4.344266,9.073381
1421715018804.00,-1.0575508,4.1212296,8.820258
1421715018824.00,-1.0788066,3.985013,9.122929
1421715018844.00,-0.934357,4.107309,9.005722
1421715018864.00,-1.1276051,4.1113505,9.144484
1421715018884.00,-0.8361612,4.0127053,9.220675
1421715018904.00,-0.89768326,3.9895039,9.023985
1421715018924.00,-0.909359,4.191434,8.73778
1421715018946.00,-0.96833634,4.2203236,8.653206
1421715018965.00,-1.1957135,4.172573,8.726403
1421715018984.00,-1.1960129,4.3225613,9.002579
1421715019004.00,-1.2726535,4.0571632,9.090147
1421715019024.00,-1.2123289,4.1787105,9.130263
1421715019052.00,-1.3956976,4.242777,9.137598
1421715019068.00,-1.3272899,4.284091,9.214389
1421715019128.00,-1.3678555,4.2695713,9.113948
1421715019131.00,-1.2014017,4.192781,9.024733
1421715019132.00,-1.2166699,4.4387197,8.916208
1421715019151.00,-1.2539424,4.40968,8.9392605
1421715019166.00,-1.233435,4.290378,8.885971
1421715019200.00,-1.3256433,4.3647733,9.014404
1421715019216.00,-1.4501843,4.292474,8.950936
1421715019254.00,-1.4623091,4.4210563,8.8951025
1421715019255.00,-1.2994478,4.4459047,8.803344
1421715019276.00,-1.4202466,4.3810897,8.79571
1421715019286.00,-1.4374608,4.311634,8.706494
1421715019314.00,-1.3974938,4.4141707,8.776549
1421715019337.00,-1.4483881,4.2661285,8.928633
1421715019343.00,-1.343606,4.434828,8.13184
1421715019369.00,-1.7383351,4.761149,8.792416
1421715019383.00,-1.5149995,4.471202,9.190887
1421715019408.00,-1.5031742,4.275559,8.875942
1421715019425.00,-1.6016693,4.3613305,8.894803
1421715019444.00,-1.5393988,4.391418,9.0760765
1421715019464.00,-1.3639636,4.2622366,8.92998
1421715019484.00,-1.2530442,4.40953,8.719817
1421715019504.00,-1.2319381,4.45788,8.671168
1421715019525.00,-1.2042458,4.141438,8.921298
1421715019544.00,-1.2490027,4.1469765,8.90094
1421715019565.00,-1.2787907,4.228257,8.994197
1421715019584.00,-1.4617103,4.436624,9.116792
1421715019604.00,-1.4642551,4.467909,8.987161
1421715019631.00,-1.4543756,4.362977,8.882828
1421715019646.00,-1.4630575,4.368216,8.912167
1421715019664.00,-1.3876145,4.363576,8.948242
1421715019684.00,-1.3826747,4.434079,8.94435
1421715019704.00,-1.2401711,4.3704615,8.828042
1421715019724.00,-1.2519965,4.33259,8.821306
1421715019744.00,-1.3695021,4.4536886,8.976683
1421715019764.00,-1.1904744,4.2219706,9.147029
1421715019784.00,-1.1023078,4.253405,9.003028
1421715019804.00,-1.0719209,4.321513,8.911419
1421715019824.00,-1.0368937,4.297563,8.97324
1421715019845.00,-1.237327,4.2839413,8.879235
1421715019865.00,-1.2567865,4.221821,8.917706
1421715019885.00,-1.234932,4.1426353,9.114396
1421715019905.00,-1.2600796,4.2836423,9.049132
1421715019924.00,-1.1476635,4.5339217,8.95408
1421715019946.00,-1.0213262,4.283792,9.022338
1421715019967.00,-1.0987152,4.2584944,9.03132
1421715019984.00,-1.251248,4.1083565,8.852591
1421715020004.00,-1.2460089,4.177363,8.944799
1421715020024.00,-1.1972104,4.1167393,9.167536
1421715020044.00,-1.3112732,4.185596,9.07413
1421715020065.00,-1.3525872,4.336931,8.955427
1421715020085.00,-1.3311818,4.3198667,8.937914
1421715020104.00,-1.2494518,4.3724074,8.906629
1421715020131.00,-1.3293855,4.3791437,8.870404
1421715020144.00,-1.4030324,4.414919,9.062754
1421715020164.00,-1.4196478,4.4331813,9.166637
1421715020184.00,-1.4844631,4.2281075,9.010063
1421715020204.00,-1.5359559,4.400998,8.916957
1421715020224.00,-1.2867242,4.373904,9.004675
1421715020245.00,-1.2588822,4.2537045,8.99764
1421715020264.00,-1.2433145,4.202361,8.952134
1421715020284.00,-1.1841874,4.27017,8.925789
1421715020304.00,-1.140179,4.307293,8.864416
1421715020326.00,-1.2681628,4.199966,8.910071
1421715020345.00,-1.1702664,4.274212,9.011261
1421715020366.00,-1.1894265,4.3051972,9.050031
1421715020384.00,-1.1711645,4.275559,9.02144
1421715020404.00,-1.199306,4.4104285,8.884475
1421715020428.00,-1.2359798,4.2887316,8.968151
1421715020445.00,-1.1023078,4.2843904,8.909472
1421715020470.00,-1.0350975,4.302952,8.984616
1421715020485.00,-1.1427237,4.180357,8.972342
1421715020504.00,-1.0991642,4.4258466,9.049582
1421715020524.00,-1.2719051,4.369414,8.926987
1421715020544.00,-1.1490107,4.282744,8.979826
1421715020565.00,-1.142574,4.1781116,8.989706
1421715020585.00,-1.144969,4.292923,9.014554
1421715020606.00,-1.176703,4.1237745,8.912167
1421715020625.00,-0.9967772,4.1882906,8.746612
1421715020647.00,-1.1737093,4.2378373,8.792416
1421715020666.00,-1.1564951,4.269272,9.0567665
1421715020685.00,-1.1340418,4.3315425,9.12233
1421715020706.00,-1.249302,4.328399,9.141939
1421715020725.00,-1.2419673,4.320316,9.172626
1421715020746.00,-1.225801,4.294869,9.201515
1421715020765.00,-1.23104,4.4008484,9.035062
1421715020785.00,-1.1611354,4.3373804,8.980874
1421715020804.00,-1.2313395,4.376449,8.958121
1421715020825.00,-1.1395802,4.2143364,8.904084
1421715020846.00,-1.1952645,4.1915836,8.790171
1421715020865.00,-1.1231145,4.1489224,8.748557
1421715020887.00,-1.1849359,4.13081,8.890761
1421715020909.00,-1.2460089,4.2559495,8.914862
1421715020925.00,-1.1668236,4.103267,8.977581
1421715020944.00,-1.1029065,4.1344023,9.167985
1421715020964.00,-1.1228151,4.1550593,9.1185875
1421715020984.00,-1.2130774,3.9938447,9.162597
1421715021006.00,-1.2370276,4.334686,9.017697
1421715021024.00,-1.2112812,4.2655296,9.130413
1421715021044.00,-1.1882291,4.3063946,9.020243
1421715021065.00,-1.2720548,4.3667192,9.133407
1421715021085.00,-1.0072554,4.3451643,9.076376
1421715021104.00,-1.3106744,4.2397833,9.020392
1421715021126.00,-1.2271482,4.255501,9.0004835
1421715021144.00,-1.127156,4.3013053,8.982521
1421715021167.00,-1.031954,4.1222777,9.120983
1421715021248.00,-1.1693683,4.219276,8.964707
1421715021249.00,-1.2602293,4.190835,8.966953
1421715021250.00,-1.2250525,4.1902366,8.958271
1421715021251.00,-1.2139755,4.372557,9.069041
1421715021287.00,-1.1026071,4.3742037,9.076376
1421715021287.00,-1.165626,4.175866,9.091943
1421715021325.00,-1.316662,4.1611967,9.002878
1421715021330.00,-1.2678635,4.400399,8.932375
1421715021392.00,-1.321003,4.325555,9.066646
1421715021392.00,-1.3657598,4.315526,8.90603
1421715021393.00,-1.251248,4.3219624,8.983868
1421715021434.00,-1.1579919,4.290528,8.916059
1421715021435.00,-1.1394305,4.132606,8.810229
1421715021518.00,-1.0982661,4.206403,9.026829
1421715021519.00,-1.1437715,4.2233176,9.019644
1421715021519.00,-1.1635305,4.2963657,8.907377
1421715021520.00,-1.300795,4.3397756,8.957522
1421715021526.00,-1.2518468,4.230353,9.044941
1421715021574.00,-1.2844789,4.190835,9.235345
1421715021575.00,-1.1609857,4.190835,9.140891
1421715021594.00,-1.2678635,4.2415795,8.846454
1421715021654.00,-1.2241544,4.398453,8.9955435
1421715021655.00,-1.1596385,4.193829,8.952583
1421715021656.00,-1.1641291,4.266877,8.943602
1421715021713.00,-1.2106824,4.1005726,9.051377
1421715021714.00,-1.2615765,4.079317,9.135054
1421715021714.00,-1.2705579,4.2047563,9.049582
1421715021735.00,-1.1546988,4.301455,9.019494
1421715021816.00,-1.1633807,4.242777,9.116792
1421715021817.00,-1.1910732,4.2834926,8.948991
1421715021818.00,-1.3346246,4.3912683,8.94435
1421715021819.00,-1.5537689,4.355792,9.089249
1421715021838.00,-1.3266912,4.442013,9.278007
1421715021845.00,-1.1048524,4.072132,9.316326
1421715021899.00,-1.0816507,4.6738806,8.350386
1421715021900.00,-1.013243,4.511169,8.350086
1421715021917.00,-0.7961943,4.1070094,8.800948
1421715021979.00,-0.8089178,4.2855883,8.988957
1421715021980.00,-0.8150551,4.2150846,8.8966
1421715021981.00,-0.7893086,4.2076,8.729696
1421715021988.00,-0.77613604,4.108656,8.772657
1421715022006.00,-0.7710466,4.1867933,8.983418
1421715022058.00,-0.7167096,4.0227346,8.96381
1421715022059.00,-0.86190766,4.158652,8.853788
1421715022087.00,-0.97656924,4.5646076,8.696316
1421715022089.00,-0.88166654,4.5397596,8.575666
1421715022104.00,-0.45205992,4.452491,8.7543955
1421715022124.00,-0.32093263,4.0719824,8.224946
1421715022146.00,-0.4700226,4.283343,8.456814
1421715022213.00,-0.61402315,3.8711,8.69886
1421715022215.00,-0.3847,3.6853364,8.971893
1421715022216.00,-0.122295685,3.3187487,9.55987
1421715022262.00,-0.2585124,3.538342,9.618998
1421715022265.00,-0.5096901,3.8890626,9.295969
1421715022266.00,-0.6167175,4.032165,9.080418
1421715022286.00,-0.56058425,3.889362,9.238338
1421715022304.00,-0.27408004,3.6952157,9.498797
1421715022324.00,-0.06870712,3.5825002,9.360036
1421715022345.00,0.027692413,3.6208205,9.373058
1421715022373.00,-0.42107436,4.19802,8.741672
1421715022384.00,-0.5306465,3.9158568,8.758287
1421715022404.00,0.027542725,3.3117132,8.478369
1421715022425.00,0.55130357,3.0566437,8.353828
1421715022446.00,0.5346881,2.4502547,8.78583
1421715022464.00,0.7104227,4.5430527,8.589139
1421715022484.00,1.4410533,1.7131875,10.576856
1421715022504.00,-0.5457651,3.6007621,9.38683
1421715022524.00,0.060773622,3.1337333,8.382419
1421715022544.00,1.2606784,2.1389022,9.448801
1421715022606.00,1.5551162,1.6055613,10.563832
1421715022607.00,0.8108638,1.919159,10.11776
1421715022618.00,-0.34623,2.6457481,7.847431
1421715022626.00,-0.029638367,3.1548395,8.927135
1421715022644.00,0.84229845,2.6384134,12.7868595
1421715022664.00,1.241668,2.7809172,11.648477
1421715022697.00,0.88181627,2.668501,7.811356
1421715022704.00,0.8943901,1.0571017,6.0811043
1421715022723.00,-0.32332763,2.4809408,7.178173
1421715022745.00,-1.2796888,4.755162,8.598569
1421715022764.00,-2.038012,6.267317,6.0794578
1421715022785.00,-1.4534775,6.7210236,11.823014
1421715022805.00,-1.9916084,3.5612442,9.485025
1421715022829.00,-1.4162049,6.852151,1.6045134
1421715022904.00,-1.282982,8.0757065,-1.9124231
1421715022906.00,1.6777111,2.7925928,5.9288707
1421715022907.00,2.6334736,1.934577,7.240593
1421715022913.00,4.095184,2.4171734,8.408015
1421715022940.00,5.450316,2.2565575,7.4784484
1421715022944.00,4.364025,0.46807662,7.235803
1421715022966.00,1.6521144,0.5108876,6.3997917
1421715022999.00,1.5551162,0.63333297,7.805518
1421715023004.00,1.3093272,0.43604323,7.9079056
1421715023025.00,0.89079756,0.33200958,7.63158
1421715023044.00,1.69268,-0.14370117,8.443492
1421715023065.00,3.738326,0.21974304,9.866134
1421715023087.00,5.8050785,-0.34218842,9.821675
1421715023104.00,6.2357326,-1.7018111,9.495055
1421715023125.00,5.711822,-1.8980529,9.456735
1421715023145.00,7.094946,-1.6116985,9.169183
1421715023225.00,9.196277,-1.8467097,8.877739
1421715023227.00,9.507479,-2.6629624,8.6611395
1421715023241.00,9.238788,-2.7479856,7.7377095
1421715023244.00,9.886191,-2.5126748,5.708978
1421715023249.00,11.220667,-2.3571482,4.1103024
1421715023272.00,12.30606,-2.5239015,4.457431
1421715023294.00,12.043356,-2.73616,4.3891726
1421715023318.00,11.88738,-2.803071,3.8492455
1421715023325.00,12.376713,-2.4586372,2.9226723
1421715023345.00,12.578194,-3.0057495,2.1350102
1421715023364.00,12.1749325,-2.9957204,2.8416908
1421715023386.00,12.40186,-4.6434937,2.5523424
1421715023410.00,10.861564,-3.079097,2.068848
1421715023428.00,9.402846,-3.1448104,3.748954
1421715023525.00,8.631351,-3.840863,4.243376
1421715023526.00,7.1904473,-3.720513,3.075205
1421715023527.00,7.186106,-3.4374518,2.7255323
1421715023528.00,7.3928266,-2.869832,2.48139
1421715023537.00,7.1805677,-2.6593697,2.651586
1421715023558.00,7.016958,-2.5245004,3.464246
1421715023568.00,7.562723,-2.465523,4.1294627
1421715023601.00,8.49259,-2.4122338,4.5074267
1421715023634.00,8.830586,-2.418371,4.4111767
1421715023635.00,9.232052,-2.6914032,4.196523
1421715023805.00,8.904982,-2.567461,3.6829412
1421715023810.00,8.842562,-2.3939717,3.6738102
1421715023812.00,8.78089,-2.287992,3.9920485
1421715023813.00,8.539442,-2.3294559,3.9781275
1421715023815.00,8.505912,-2.3538551,3.9371128
1421715023827.00,8.774154,-2.0390596,4.35205
1421715023833.00,8.909772,-1.5443386,4.788692
1421715023834.00,9.526489,-1.9291883,5.690267
1421715023855.00,10.061028,-2.4134312,6.0240726
1421715023873.00,9.818981,-1.7889299,5.450915
1421715023874.00,7.374415,-1.2609777,3.3461416
1421715023876.00,5.572462,-1.7209712,2.5691075
1421715023906.00,6.3348265,-1.5343094,3.216661
1421715023907.00,7.4250097,-1.1521541,3.6506085
1421715023929.00,7.5188646,-1.2278966,4.02977
1421715024003.00,8.182883,-1.147364,2.6200018
1421715024003.00,8.106692,-1.4151572,2.997367
1421715024004.00,8.233029,-1.5295193,5.197791
1421715024005.00,8.469538,-1.6892372,5.9386005
1421715024025.00,8.57432,-1.6646882,5.3411927
1421715024045.00,9.022338,-1.2481046,4.9774494
1421715024064.00,9.788295,-0.9355545,4.7614484
1421715024084.00,10.273586,-1.119522,4.7394443
1421715024104.00,9.909992,-1.4711407,4.6526246
1421715024124.00,10.015822,-1.5081139,4.992119
1421715024194.00,10.184372,-0.726589,5.3042197
1421715024196.00,11.302397,-0.76910067,4.821324
1421715024197.00,10.009834,-1.5646962,2.6240432
1421715024204.00,8.4238825,-1.1552975,-0.08637039
1421715024224.00,7.165599,-0.3556604,-0.27827132
1421715024245.00,7.0913534,0.22887406,0.48768586
1421715024265.00,5.086423,-0.54696256,-0.20058289
1421715024284.00,5.1480947,-0.38095778,1.3121713
1421715024304.00,5.6006036,0.49172744,2.6632617
1421715024324.00,7.8279715,0.26315278,0.8414003
1421715024346.00,8.39604,-0.35206786,-1.765279
1421715024365.00,6.670279,-0.6090834,-0.9331595
1421715024384.00,6.9898643,-1.2061917,-0.75847274
1421715024405.00,14.144386,-0.9090596,-0.067359924
1421715024424.00,10.243649,-3.0850844,5.1671047
1421715024444.00,9.88694,-4.794829,-1.7706679
1421715024508.00,11.000474,-5.874833,-2.4107368
1421715024509.00,7.1332664,-9.027877,-0.37362304
1421715024510.00,5.8540263,-8.564889,1.1403286
1421715024524.00,5.814808,-8.693622,1.4078224
1421715024545.00,6.572532,-8.76158,0.7879614
1421715024565.00,8.687485,-8.976383,0.7485933
1421715024584.00,8.248897,-9.094338,0.6286926
1421715024604.00,5.50136,-12.885056,-0.24908203
1421715024624.00,5.2590137,-12.11835,-5.42427
1421715024645.00,2.9364436,-5.527855,-6.7253647
1421715024664.00,5.1774335,-6.417754,3.268154
1421715024684.00,10.93536,-3.0240116,3.0240116
1421715024706.00,11.77197,-1.3100756,2.783761
1421715024724.00,9.764046,0.43170226,2.6304798
1421715024748.00,5.161716,2.020199,3.958069
1421715024766.00,1.2751982,2.1209395,6.661747
1421715024822.00,-0.16750167,2.5773404,9.084758
1421715024822.00,0.71341646,1.8166223,7.7954893
1421715024828.00,2.1143532,-0.55639297,5.2894006
1421715024859.00,4.1342525,-1.7143849,6.1935205
1421715024866.00,3.4643958,-4.452491,7.9707747
1421715024884.00,7.5232053,-3.320994,11.992761
1421715024906.00,13.182487,-3.4841547,9.707912
1421715024924.00,14.850469,-6.0781107,5.4718714
1421715024945.00,17.434994,-4.3239083,-2.4128325
1421715024965.00,16.89836,-4.525389,-0.9726773
1421715024984.00,13.768968,-4.8267126,4.107908
1421715025005.00,10.220596,-5.8014855,7.7853103
1421715025024.00,9.101973,-6.179749,9.43009
1421715025044.00,8.228089,-5.527256,9.498049
1421715025064.00,6.502478,-4.828509,7.4486604
1421715025084.00,6.5399003,-4.498745,7.691605
1421715025141.00,4.792135,-4.58766,10.619966
1421715025142.00,5.0948052,-2.536176,4.528982
1421715025144.00,4.762945,-2.8966265,2.5333319
1421715025165.00,3.8041892,-1.8751506,2.6358688
1421715025184.00,3.850892,-1.9032921,5.624254
1421715025204.00,3.7775445,-1.8736538,5.8222923
1421715025224.00,4.3206153,-1.9426602,5.4634886
1421715025244.00,6.038593,-0.79424834,4.9388294
1421715025264.00,7.1455407,-0.4552034,5.066514
1421715025284.00,8.238717,-0.481848,6.070327
1421715025304.00,7.6356215,-1.1648777,6.306685
1421715025324.00,6.6725245,-1.1518548,4.733157
1421715025345.00,6.933881,-1.8705102,5.155878
1421715025364.00,8.390053,-2.5732987,6.678662
1421715025384.00,8.849148,-2.7777736,6.0692787
1421715025405.00,8.122858,-2.9377909,4.4138713
1421715025424.00,8.989257,-3.6259098,4.843927
1421715025513.00,9.927955,-3.3112643,3.3227901
1421715025514.00,9.071586,-3.1470556,1.9097286
1421715025515.00,8.740324,-4.10192,2.6542804
1421715025516.00,8.70395,-3.3992813,1.4355148
1421715025524.00,7.9644876,-2.839595,0.3634442
1421715025544.00,6.637647,-3.6387832,1.19736
1421715025568.00,6.851103,-3.1630723,1.825903
1421715025584.00,6.6680336,-1.7045054,0.78481793
1421715025604.00,8.054601,-0.60968214,2.4993525
1421715025624.00,8.696166,-0.8725355,2.27467
1421715025644.00,9.19463,-2.6057813,1.269061
1421715025664.00,8.592881,-1.9290385,0.8038284
1421715025685.00,7.241791,-2.418371,3.3545241
1421715025704.00,9.831256,-5.719606,0.87747526
1421715025724.00,10.227033,-4.030818,0.68048495
1421715025744.00,6.0872416,-5.899382,1.5485299
1421715025815.00,3.886967,-9.126521,2.4234605
1421715025816.00,7.0808754,-9.534273,1.595083
1421715025817.00,7.3827972,-9.166339,0.1526825
1421715025824.00,5.8501344,-9.585018,-0.77433974
1421715025845.00,4.934788,-7.1289253,-0.38395157
1421715025864.00,5.978268,-7.103927,-0.19339782
1421715025884.00,6.129903,-8.383317,1.8015038
1421715025904.00,5.935457,-7.9194317,-0.047151946
1421715025924.00,6.3093796,-7.043154,-0.11481125
1421715025946.00,6.0348506,-7.322024,0.23665787
1421715025965.00,5.500761,-7.902367,0.14759308
1421715025984.00,5.7895107,-7.154971,0.18905686
1421715026004.00,6.137088,-6.841074,0.9172925
1421715026026.00,5.977819,-6.957532,0.5430707
1421715026045.00,6.002967,-7.6077795,0.04790039
1421715026064.00,6.390511,-7.3592963,0.39772293
1421715026138.00,6.3282404,-7.208859,0.5760022
1421715026138.00,5.728587,-7.079229,-0.07065307
1421715026139.00,5.870193,-7.0629125,-1.50E-04
1421715026144.00,5.685477,-7.031927,0.52480865
1421715026164.00,6.309679,-7.59775,-0.30880782
1421715026185.00,7.3533087,-7.4964113,-0.00583786
1421715026204.00,7.604636,-7.195836,1.3383669
1421715026224.00,7.571854,-5.1922526,1.2686119
1421715026244.00,6.184839,-3.5655854,-1.8520986
1421715026264.00,3.4405951,-5.5645285,-2.396217
1421715026287.00,3.3706906,-8.1915655,0.9304651
1421715026305.00,4.184698,-6.450835,0.0889151
1421715026325.00,3.8001475,-5.4901333,0.7089258
1421715026345.00,2.8346553,-2.9229717,-2.2016218
1421715026365.00,3.0587394,-1.2090358,-3.331622
1421715026384.00,3.0039532,-3.5850449,-3.341651
1421715026457.00,0.4840933,-1.9576291,-4.925208
1421715026458.00,-2.0707939,-1.4150075,-6.324049
1421715026459.00,-4.2219706,-6.835386,5.505252
1421715026464.00,-1.2994478,-8.086484,9.688752
1421715026484.00,-2.7503805,-12.568613,-7.8377013
1421715026504.00,-2.570754,-9.519454,-4.3228607
1421715026524.00,-3.0463152,-9.940229,6.9681597
1421715026545.00,-3.3644037,-9.94008,6.2319903
1421715026565.00,-2.293381,-5.131928,0.12963043
1421715026586.00,-2.7479856,-4.918173,-3.468587
1421715026605.00,-16.025824,-17.077686,0.71536237
1421715026624.00,-5.1561775,-19.060015,2.4879763
1421715026644.00,-0.7649094,-6.5171475,-1.0999128
1421715026664.00,-3.7390745,-6.16972,-2.6542804
1421715026685.00,-5.225633,-8.507559,0.38724473
1421715026708.00,-4.2132883,-8.134234,2.219285
1421715026724.00,-4.903503,-9.313033,1.5642471
1421715026751.00,-4.777166,-9.228609,-0.03592529
1421715026807.00,-4.0579114,-8.755443,-0.34518218
1421715026808.00,-3.949986,-8.938811,0.54097503
1421715026809.00,-4.2174797,-8.972641,0.5894742
1421715026830.00,-4.369414,-8.995244,0.28500733
1421715026844.00,-4.131858,-9.008717,0.5411247
1421715026866.00,-3.9592667,-9.001532,0.48529083
1421715026884.00,-4.1347017,-9.175919,0.3359015
1421715026905.00,-4.2718167,-8.870554,0.34712815
1421715026925.00,-4.369264,-8.623118,0.6927594
1421715026944.00,-4.170178,-8.789123,0.717458
1421715026965.00,-4.3062453,-8.945847,0.4420308
1421715026984.00,-4.551136,-8.971294,0.34533188
1421715027004.00,-4.478088,-8.864716,0.3025209
1421715027026.00,-4.356241,-8.9900055,0.54621416
1421715027044.00,-4.5301795,-9.080566,0.42152345
1421715027118.00,-4.726721,-8.943302,0.51268387
1421715027118.00,-4.903952,-8.662786,0.5721103
1421715027119.00,-4.9153285,-8.674611,0.68976563
1421715027124.00,-4.817133,-8.475525,0.8446934
1421715027144.00,-4.711752,-8.62237,0.92657316
1421715027164.00,-4.680467,-8.532107,0.8026309
1421715027185.00,-2.8515701,-8.149054,-1.9146684
1421715027205.00,-3.516637,-6.4873595,2.651586
1421715027224.00,-4.2474174,-9.135802,-0.7450008
1421715027244.00,-4.1743693,-9.510174,0.48214737
1421715027265.00,-3.6690202,-9.661509,-0.45490402
1421715027284.00,-3.418591,-9.81,0.26854157
1421715027304.00,-3.3087194,-9.322165,0.7964937
1421715027324.00,-3.7236567,-8.928184,1.3314812
1421715027345.00,-3.9436991,-8.436756,1.443598
1421715027365.00,-4.676575,-8.48256,-0.39907014
1421715027417.00,-5.0912127,-8.757389,-0.9129515
1421715027418.00,-4.049529,-8.326735,0.39113662
1421715027424.00,-3.3648527,-8.841813,0.75742495
1421715027445.00,-3.232528,-9.570498,0.34413436
1421715027472.00,-3.4941838,-9.527388,-0.048499145
1421715027484.00,-3.5447786,-9.923314,0.30641282
1421715027504.00,-4.511618,-9.068742,0.63647646
1421715027525.00,-5.3548145,-9.210946,0.748743
1421715027545.00,-5.4810023,-7.6919045,0.9533675
1421715027566.00,-4.5027866,-8.266859,0.80592406
1421715027584.00,-3.9915993,-8.836724,0.37197646
1421715027604.00,-6.7297053,-7.890392,4.7601013
1421715027625.00,-4.934489,-10.50695,-1.2272978
1421715027645.00,-0.44487488,-11.439362,-2.0101697
1421715027665.00,1.0915302,-10.724897,-1.997596
1421715027686.00,1.5763719,-10.908266,-0.40790176
1421715027769.00,2.072141,-13.957126,0.5372328
1421715027770.00,1.5796651,-15.33516,0.104183346
1421715027771.00,-2.0805235,-11.681408,2.607278
1421715027772.00,-4.548591,-6.0290127,5.8719893
1421715027785.00,-7.786508,-1.8220111,1.8119819
1421715027804.00,-1.5953823,-7.7895017,5.1633625
1421715027824.00,-0.1393602,-7.6188564,-0.9556128
1421715027847.00,-1.9035915,-7.713759,-6.207591
1421715027865.00,-0.9446855,-9.389974,-2.105821
1421715027885.00,1.6784596,-12.634626,-1.2332854
1421715027905.00,5.35227,-13.301041,1.6934285
1421715027924.00,6.086493,-8.611293,-1.1689192
1421715027945.00,3.6953654,-8.222102,5.6169195
1421715027965.00,3.2558794,-9.039552,4.1698785
1421715027984.00,1.7618363,-9.769883,0.21195923
1421715028004.00,-0.07634125,-9.924961,0.606389
1421715028025.00,-0.5167255,-9.748478,-0.1579216
1421715028086.00,-0.006885681,-9.815688,-0.8069719
1421715028087.00,0.82298857,-9.741143,-0.38455033
1421715028088.00,1.0677296,-9.734557,0.012573852
1421715028108.00,1.1734099,-9.619745,-0.16510665
1421715028125.00,1.4751823,-9.537566,-0.4204756
1421715028145.00,1.68789,-9.460477,-0.6171666
1421715028164.00,1.5569124,-9.234746,0.85936296
1421715028185.00,1.6902851,-9.227411,3.7359312
1421715028205.00,1.8079404,-9.068742,2.7927425
1421715028224.00,2.258803,-9.315728,0.17274079
1421715028245.00,2.5700057,-9.474547,-0.33650026
1421715028264.00,1.8827847,-9.344318,0.41763154
1421715028287.00,1.4000386,-9.516011,0.64860123
1421715028308.00,1.2466077,-9.480685,0.6956035
1421715028326.00,1.3470488,-9.48293,0.73871386
1421715028346.00,1.2475058,-9.446257,0.77688444
1421715028406.00,1.3042378,-9.536968,0.5876779
1421715028407.00,1.3906082,-9.525592,0.71087176
1421715028408.00,1.2443624,-9.427695,0.74634796
1421715028428.00,1.185385,-9.298963,0.9086105
1421715028445.00,0.9428893,-9.437724,0.76760375
1421715028465.00,1.0812017,-9.511221,0.907413
1421715028486.00,1.0568024,-9.529932,0.8975336
1421715028504.00,1.0240206,-9.558673,1.0036628
1421715028525.00,1.1485616,-9.499845,1.1582913
1421715028545.00,1.2545412,-9.429042,1.2331357
1421715028564.00,1.2633728,-9.501941,1.235381
1421715028584.00,1.3630655,-9.480236,1.1047027
1421715028605.00,1.2659175,-9.519304,1.0753638
1421715028625.00,1.5235318,-9.494456,1.1436218
1421715028646.00,1.4739848,-9.358539,1.3346246
1421715028667.00,1.5434403,-9.406289,1.3683046
1421715028754.00,1.4257851,-9.459129,1.4946419
1421715028755.00,1.4467415,-9.508976,1.3355228
1421715028756.00,1.6554075,-9.363329,1.2070899
1421715028757.00,1.6340021,-9.390573,1.1148816
1421715028766.00,1.7067508,-9.448052,1.1415262
1421715028785.00,1.6892372,-9.432186,1.1692185
1421715028804.00,1.5895445,-9.406289,1.315165
1421715028825.00,1.5640974,-9.547147,1.2281959
1421715028844.00,1.6006215,-9.448651,1.1768527
1421715028865.00,1.7884809,-9.351204,1.1964619
1421715028884.00,1.7491127,-9.461375,1.0123448
1421715028905.00,1.5417938,-9.415421,0.76655596
1421715028925.00,1.459016,-9.415121,0.9942325
1421715028944.00,1.7329463,-9.050629,1.2567865
1421715028965.00,1.8522482,-9.119037,1.4512322
1421715028984.00,2.12543,-9.102272,1.7200731
1421715029004.00,2.1290226,-9.128168,1.5917898
1421715029068.00,2.0374131,-9.3309965,1.4188994
1421715029070.00,1.6983682,-9.624386,1.0518626
1421715029070.00,1.5747254,-9.542207,0.8105644
1421715029084.00,1.7485139,-9.546398,0.62420195
1421715029105.00,1.5986755,-9.5721445,0.70772827
1421715029124.00,1.7994081,-9.436377,1.0556048
1421715029144.00,2.2132974,-9.249266,1.3076806
1421715029165.00,2.6890082,-9.013058,1.4359639
1421715029192.00,2.8604019,-8.976982,1.1820918
1421715029207.00,2.7741811,-9.273815,0.6532416
1421715029226.00,2.3745122,-9.393416,0.12858261
1421715029245.00,2.1282742,-9.390423,-0.07274872
1421715029266.00,2.3209236,-9.438323,-0.22064118
1421715029285.00,2.5721014,-9.261391,0.40251297
1421715029307.00,3.0683193,-9.323811,1.1579919
1421715029330.00,3.7071908,-9.5666065,1.640289
1421715029346.00,4.0228844,-9.793684,1.8030007
1421715029424.00,2.9927266,-10.056088,1.6338524
1421715029425.00,1.0925779,-10.139614,1.13973
1421715029426.00,-0.68377805,-9.946217,0.32572266
1421715029427.00,-1.4473403,-9.97855,-0.6351292
1421715029444.00,-0.85427356,-10.602003,-0.8586145
1421715029464.00,-0.069305874,-11.324401,-0.28216323
1421715029485.00,0.4674779,-11.487861,0.11600876
1421715029507.00,1.0940748,-11.3395195,-0.160616
1421715029529.00,1.160836,-10.653346,-0.6839278
1421715029544.00,0.78496766,-10.042915,-1.2726535
1421715029564.00,0.5888754,-9.945468,-1.1569442
1421715029585.00,0.74904233,-9.827364,-1.1386821
1421715029606.00,0.90501803,-9.650432,-1.1716136
1421715029626.00,0.59351575,-9.595496,-0.15148498
1421715029646.00,-0.2017804,-9.965077,1.0298584
1421715029666.00,-0.57824755,-10.024354,1.25993
1421715029739.00,0.36299515,-9.687554,1.372945
1421715029740.00,1.2148737,-9.465267,-1.0966196
1421715029741.00,1.079555,-9.25705,-1.6226257
1421715029751.00,0.5216652,-8.95872,-0.79709244
1421715029764.00,0.43035507,-8.621921,-0.6730005
1421715029788.00,0.6436615,-8.451276,-0.7843689
1421715029807.00,1.0347981,-8.159832,-0.8833131
1421715029824.00,1.0346484,-8.133337,-0.9060658
1421715029846.00,0.8734337,-7.975565,-1.201701
1421715029865.00,0.7500902,-7.5598793,-1.6908838
1421715029884.00,1.1752062,-7.455546,-1.6178356
1421715029905.00,1.3434563,-7.6453514,-1.400787
1421715029925.00,1.6429834,-8.1319895,-1.4703923
1421715029945.00,2.3623874,-8.591683,-1.6299605
1421715029966.00,3.7300932,-9.063053,-2.2287154
1421715029987.00,4.788093,-8.765772,-3.7785923
1421715030004.00,3.9212458,-8.104297,-3.873495
1421715030074.00,2.3611898,-8.340655,-2.6478438
1421715030076.00,1.8887722,-9.77183,-1.445544
1421715030077.00,2.0065773,-12.577445,-0.0875679
1421715030085.00,1.547033,-13.198953,1.207539
1421715030105.00,0.70548296,-11.196716,-0.14489868
1421715030127.00,2.2188358,-9.1853485,-2.3852897
1421715030146.00,2.9648845,-7.5191636,1.096919
1421715030164.00,0.43649232,-7.8631487,2.9376411
1421715030185.00,-0.11256592,-9.135203,1.8035994
1421715030205.00,0.68781966,-10.830578,0.9083111
1421715030224.00,1.9252963,-11.167078,-0.43888733
1421715030245.00,2.4673193,-9.827364,-0.35850447
1421715030265.00,1.5266752,-9.207354,0.42376876
1421715030285.00,0.9966275,-9.216784,1.7179774
1421715030306.00,0.8758287,-9.373208,1.5214362
1421715030328.00,1.497935,-9.429491,0.6050418
1421715030411.00,2.030677,-9.579928,-0.26914033
1421715030412.00,1.9600241,-9.518107,-0.4975653
1421715030417.00,1.8682649,-9.410331,-0.047151946
1421715030418.00,2.1445904,-9.145532,0.56567365
1421715030428.00,2.43813,-9.31992,0.9846524
1421715030445.00,2.2977219,-9.104367,1.1205697
1421715030465.00,2.1266277,-8.924441,1.121468
1421715030484.00,2.243834,-9.133257,0.7415579
1421715030505.00,2.3843915,-9.3928175,-0.023950195
1421715030525.00,2.199526,-9.566457,-0.67045575
1421715030545.00,1.9056871,-9.370214,-0.6890172
1421715030565.00,1.8607805,-9.102272,-0.86160827
1421715030585.00,1.8637743,-8.942404,-1.1894265
1421715030605.00,1.9366727,-8.606652,-0.96579164
1421715030626.00,1.9935544,-8.585846,-0.8557704
1421715030692.00,2.340982,-8.740025,-0.82837737
1421715030693.00,2.398612,-8.440349,-0.8421487
1421715030694.00,2.7708879,-7.870034,-1.6567547
1421715030706.00,2.915637,-8.368498,-1.4377601
1421715030725.00,1.5271243,-8.637339,0.49142808
1421715030744.00,1.7332457,-8.614286,0.34188902
1421715030764.00,2.931504,-8.620423,-0.49726593
1421715030788.00,2.597249,-8.195158,-0.24758515
1421715030808.00,2.1218376,-7.3560033,-0.12783417
1421715030827.00,2.617457,-8.390352,-1.6881894
1421715030845.00,1.595083,-9.0325165,-0.32542327
1421715030865.00,2.4801924,-8.244855,-0.19953507
1421715030886.00,2.6887088,-7.962093,-0.70458484
1421715030910.00,2.8253746,-7.8680882,-1.1053015
1421715030925.00,3.5819013,-9.213341,-1.7461189
1421715030945.00,3.7458105,-8.929232,-1.3180091
1421715030965.00,3.3370106,-7.861053,-0.8970845
1421715031044.00,3.3653018,-7.791148,-1.2008029
1421715031045.00,3.2944992,-8.28572,-1.1735595
1421715031046.00,3.5170863,-8.853189,-1.3009447
1421715031047.00,3.4835558,-8.916208,-1.5495776
1421715031065.00,3.7456608,-10.389296,-1.515299
1421715031085.00,5.1413584,-14.950161,-3.4429903
1421715031106.00,5.109774,-17.28725,-5.39059
1421715031128.00,3.6181262,-14.753769,-4.518204
1421715031147.00,3.6935692,-12.436888,-3.683091
1421715031165.00,3.0572424,-10.3794155,-1.9489472
1421715031185.00,1.9574794,-8.955577,-1.7455201
1421715031205.00,0.92747134,-8.937764,-2.0859122
1421715031225.00,-0.6411168,-9.648336,-2.6955945
1421715031245.00,0.3252736,-9.893526,-3.3013847
1421715031268.00,2.0983365,-10.1575775,-3.1287937
1421715031286.00,1.945654,-9.063802,-2.5643175
1421715031309.00,0.9900412,-7.789951,-2.8976743
1421715031326.00,-0.082927555,-6.9629207,-3.237767
1421715031395.00,-0.63632673,-6.508316,-3.0856833
1421715031396.00,-0.26884094,-5.7923546,-2.709216
1421715031397.00,0.18800904,-5.3947816,-2.4312441
1421715031408.00,0.79799056,-4.813241,-2.0766315
1421715031425.00,0.909359,-4.2305026,-1.5362554
1421715031445.00,0.70248914,-3.8803806,-1.2861255
1421715031465.00,0.29892838,-3.610492,-1.8479073
1421715031485.00,0.545316,-4.0209384,-2.3150856
1421715031505.00,1.6829503,-5.0633707,-2.3218217
1421715031525.00,3.9582188,-7.8746743,-2.2215302
1421715031545.00,6.3224025,-9.938283,-1.5221846
1421715031565.00,7.0274363,-9.986782,-2.3080504
1421715031586.00,5.4827986,-8.667875,-3.8419106
1421715031605.00,2.9695249,-8.572823,-5.802384
1421715031672.00,1.5555652,-9.053024,-5.2471886
1421715031673.00,0.92462724,-9.504785,-3.7245548
1421715031674.00,1.5441889,-9.443113,-3.1554382
1421715031685.00,1.8103354,-9.18026,-3.6052527
1421715031705.00,1.3331277,-9.069639,-3.8800814
1421715031725.00,0.8693921,-9.314231,-4.3498044
1421715031745.00,0.5590874,-9.203462,-5.440586
1421715031767.00,0.49442184,-9.140741,-6.066884
1421715031786.00,0.74260575,-10.488539,-4.240532
1421715031808.00,1.9525397,-11.57962,-1.4778768
1421715031827.00,2.980003,-12.79644,0.2201921
1421715031848.00,5.0823812,-15.582296,-3.7509
1421715031865.00,7.9294605,-18.618134,-7.5073385
1421715031885.00,2.0857627,-10.788365,4.4483
1421715031905.00,-0.6396199,-8.690778,5.4040623
1421715031925.00,-0.7773335,-9.214838,3.650309
1421715031948.00,0.2574646,-11.8620825,-0.23680755
1421715032015.00,4.115392,-11.784694,-1.3947995
1421715032017.00,5.7106247,-10.549612,-1.2314891
1421715032017.00,4.99646,-9.341774,0.37886214
1421715032027.00,3.5578015,-8.819959,0.36748582
1421715032045.00,1.8344352,-8.741222,-0.3956273
1421715032065.00,1.1364368,-9.1765175,-0.62959075
1421715032088.00,1.4247372,-8.97324,-1.3654605
1421715032105.00,2.108665,-8.965755,-2.1263282
1421715032128.00,2.5378225,-8.826994,-1.7184265
1421715032146.00,3.1605277,-8.129295,-0.8674461
1421715032165.00,3.6353402,-7.900571,-0.6611751
1421715032185.00,3.407065,-8.298144,-1.2943584
1421715032205.00,3.360961,-8.884175,-2.193838
1421715032225.00,3.1075377,-8.805439,-2.227967
1421715032246.00,3.0451176,-8.523275,-2.3647823
1421715032265.00,2.7631042,-8.410261,-2.001488
1421715032338.00,2.1031265,-8.017926,-1.8556911
1421715032339.00,2.0531304,-8.489595,-2.2276676
1421715032340.00,2.2201831,-8.363558,-1.1948154
1421715032349.00,2.690056,-7.7853103,-2.4721093
1421715032429.00,3.5298097,-7.4318953,-2.9991632
1421715032430.00,2.878065,-7.3923774,-1.0208771
1421715032431.00,1.8791922,-7.8543167,0.52316207
1421715032432.00,1.7006135,-7.926317,-0.24938141
1421715032446.00,2.6069787,-8.344547,-1.4150075
1421715032479.00,2.386637,-8.802745,-0.17812958
1421715032487.00,2.0434008,-8.893905,-0.34548157
1421715032509.00,2.4514523,-8.4095125,-0.5016069
1421715032525.00,2.0001407,-7.6679544,0.001496887
1421715032545.00,1.8919158,-8.070916,-0.728535
1421715032565.00,2.6075776,-9.337283,-1.463806
1421715032585.00,3.378175,-9.26184,-1.443598
1421715032606.00,2.8586054,-7.689809,-1.2463083
1421715032693.00,2.7427464,-7.521858,-0.8988808
1421715032704.00,3.3813186,-8.143665,-0.46628037
1421715032705.00,4.3031015,-8.927884,-2.4559429
1421715032706.00,6.9898643,-12.927268,-5.522915
1421715032707.00,7.8841047,-18.488653,-7.9766126
1421715032736.00,4.3289976,-18.883232,-5.7547827
1421715032746.00,2.5090823,-15.3401,-5.126689
1421715032765.00,2.273622,-11.445948,-3.7679644
1421715032785.00,1.6694783,-8.932375,-2.3580465
1421715032805.00,0.33335677,-8.185878,-1.715283
1421715032825.00,0.23141876,-8.6225195,-2.42361
1421715032847.00,1.321452,-9.136401,-3.8505926
1421715032865.00,2.5780888,-8.687185,-3.0796957
1421715032885.00,2.6047335,-7.5392222,-2.3068528
1421715032905.00,1.4183006,-6.264473,-1.9263442
1421715032964.00,0.09789643,-5.5140834,-2.122586
1421715032965.00,-0.87298465,-5.593119,-2.824776
1421715032966.00,-1.0756631,-6.2063937,-2.830015
1421715032985.00,-0.633782,-6.8526,-3.1039453
1421715033005.00,0.004939728,-6.5533724,-3.16906
1421715033025.00,0.2574646,-6.0559564,-2.787204
1421715033048.00,0.6240523,-6.056705,-2.1709356
1421715033065.00,1.2114308,-6.185587,-1.8062938
1421715033087.00,1.2073892,-6.2959075,-1.9814296
1421715033105.00,1.434916,-6.881789,-2.118694
1421715033125.00,2.0752845,-7.3875875,-2.3074517
1421715033145.00,3.4043705,-8.348589,-2.2327569
1421715033165.00,4.7392945,-9.097482,-2.4505541
1421715033185.00,5.562882,-8.851094,-3.2320788
1421715033209.00,4.7888417,-8.580307,-4.2843904
1421715033228.00,3.2552805,-8.638985,-4.60682
1421715033247.00,2.3990612,-8.999885,-4.595893
1421715033332.00,2.1640499,-9.307345,-4.9425716
1421715033342.00,2.3632855,-8.95902,-3.7708085
1421715033343.00,2.5725503,-7.7044783,-2.893483
1421715033344.00,2.3930736,-7.40076,-2.4984543
1421715033347.00,2.1468356,-7.9766126,-2.0556753
1421715033368.00,1.8387762,-8.005952,-1.7862355
1421715033387.00,1.7871337,-7.523804,-2.2613475
1421715033405.00,2.1881497,-7.600894,-3.2480955
1421715033425.00,2.3469694,-7.724387,-3.522475
1421715033448.00,1.3446537,-8.06463,-3.3985326
1421715033465.00,0.7524852,-9.454788,-5.2736835
1421715033485.00,2.778522,-12.255914,-8.688532
1421715033505.00,3.2494428,-12.27253,1.954785
1421715033525.00,1.6263679,-11.901601,7.574998
1421715033547.00,8.045619,-17.852325,-7.957003
1421715033566.00,8.888516,-14.115347,2.8747718
1421715033587.00,-0.27647507,-8.027058,7.257358
1421715033662.00,-1.2769945,-7.030879,6.1102934
1421715033663.00,0.5562433,-10.698552,4.468508
1421715033665.00,1.9784359,-14.271023,-1.0193802
1421715033666.00,3.624413,-12.458443,-3.388803
1421715033685.00,3.7982016,-11.244467,-0.17558487
1421715033705.00,3.2051349,-9.527537,1.5203884
1421715033725.00,3.0722113,-8.121811,0.050594788
1421715033745.00,2.7211912,-7.885153,-0.43589357
1421715033767.00,2.3619382,-8.534352,-0.9674382
1421715033785.00,2.2147944,-8.69437,-0.92747134
1421715033805.00,1.8616786,-8.716524,-0.8827144
1421715033825.00,2.4336393,-8.475525,-1.2518468
1421715033845.00,2.9211755,-8.200847,-1.1925701
1421715033868.00,2.89019,-8.373138,-0.8250842
1421715033885.00,2.708318,-8.424182,-0.83002394
1421715033905.00,2.734813,-8.659043,-2.0806732
1421715033976.00,3.129542,-9.054072,-2.639012
1421715033977.00,2.689158,-8.644074,-1.5419436
1421715033978.00,2.0694466,-8.407267,-1.221909
1421715033990.00,1.9666104,-8.537497,-1.5717316
1421715034005.00,2.4165747,-8.893007,-2.1465364
1421715034025.00,2.6023383,-8.965755,-2.2004242
1421715034046.00,2.0101697,-8.202193,-1.6503181
1421715034067.00,1.5123051,-7.894134,-0.76461
1421715034086.00,1.0529104,-7.8279715,0.15358062
1421715034105.00,1.6124469,-8.58345,-1.1951147
1421715034126.00,2.78915,-9.170529,-2.1998255
1421715034148.00,3.0708642,-8.273445,-1.1235635
1421715034167.00,2.2123992,-7.309001,-0.71341646
1421715034185.00,1.6805552,-7.731572,-1.1478131
1421715034205.00,1.8116826,-8.181836,-1.0761123
1421715034226.00,2.2921834,-8.178692,-1.5476317
1421715034292.00,2.6325755,-8.082143,-1.695075
1421715034293.00,1.9742446,-8.25683,-0.77583665
1421715034293.00,2.7442434,-8.452622,-0.91804093
1421715034305.00,4.1095543,-8.528066,-1.1374846
1421715034326.00,4.555327,-8.235424,-0.9066646
1421715034345.00,4.370611,-8.420889,-0.93106383
1421715034370.00,4.7690825,-9.214988,-1.104104
1421715034388.00,5.307064,-10.107431,-2.9508138
1421715034405.00,6.6975226,-13.07516,-4.9114366
1421715034425.00,6.7324,-18.328037,-6.6056137
1421715034445.00,3.147355,-17.80233,-4.4423122
1421715034466.00,0.3477269,-13.879138,-2.9259653
1421715034485.00,-0.12588821,-10.287357,-1.9134709
1421715034506.00,-0.11032059,-7.9911323,-0.73721695
1421715034526.00,-0.35595977,-8.602461,-2.7358608
1421715034550.00,1.8739531,-10.850636,-4.155808
1421715034647.00,2.464924,-11.31991,-3.717669
1421715034648.00,1.7769548,-9.570199,-2.0631597
1421715034656.00,1.6212785,-7.654632,-2.470762
1421715034661.00,0.710722,-6.5909443,-2.912194
1421715034662.00,-0.30970597,-5.8555236,-2.4891737
1421715034679.00,-1.1044034,-6.0104513,-2.5330324
1421715034686.00,-1.4331198,-5.9568624,-1.7902771
1421715034706.00,-1.6106507,-5.7820263,-1.1781999
1421715034725.00,-1.6024177,-5.566175,-1.3148657
1421715034746.00,-1.1431727,-5.7112236,-1.5843054
1421715034766.00,-0.39368135,-5.550458,-2.269281
1421715034785.00,0.57001466,-5.262756,-2.1335135
1421715034806.00,2.1230352,-5.9948835,-1.1895763
1421715034825.00,3.739374,-7.969278,0.40400985
1421715034845.00,4.770879,-9.777368,-0.4074527
1421715034867.00,5.2548227,-9.6951885,-1.9139199
1421715034935.00,4.243675,-8.34784,-3.594625
1421715034936.00,3.223846,-8.46804,-4.8773074
1421715034939.00,3.1042447,-9.782308,-5.523514
1421715034956.00,1.9809805,-10.904524,-5.6757474
1421715034973.00,0.47990203,-10.476863,-5.1695
1421715034985.00,-0.002844086,-9.592952,-3.9963894
1421715035005.00,0.18561402,-8.880433,-3.6646793
1421715035026.00,1.146915,-8.696016,-3.6030076
1421715035050.00,1.7483642,-8.067773,-2.7758276
1421715035065.00,1.6028668,-7.4703655,-2.4834855
1421715035086.00,1.2126284,-7.6712475,-3.9233413
1421715035105.00,2.0438497,-9.220376,-6.009553
1421715035125.00,3.6844382,-11.842922,-7.6007442
1421715035145.00,3.7053945,-15.060033,-2.9289591
1421715035165.00,3.4408946,-13.761932,4.863836
1421715035186.00,2.5378225,-13.449382,-4.1068597
1421715035262.00,2.0029848,-14.016552,-2.2559588
1421715035263.00,0.67225206,-10.883119,3.2136672
1421715035264.00,0.12543915,-9.076824,3.0931678
1421715035265.00,0.90696394,-10.894046,0.30895752
1421715035286.00,3.5164874,-12.047547,-1.7877324
1421715035305.00,5.1024394,-11.927197,-1.5419436
1421715035325.00,5.0335827,-11.182496,0.081430666
1421715035345.00,2.936743,-10.504556,1.0364447
1421715035365.00,1.9752923,-9.938882,1.5155983
1421715035387.00,1.7143849,-9.811048,-0.47870454
1421715035406.00,2.0434008,-9.595496,-2.4575894
1421715035426.00,2.4822881,-9.058263,-2.0155587
1421715035446.00,2.2008734,-8.123307,-1.0300081
1421715035467.00,2.0565734,-7.8517723,0.066162415
1421715035487.00,2.566862,-7.5564365,-0.3050656
1421715035505.00,3.3150065,-7.6977425,-1.5317646
1421715035526.00,3.480113,-7.9338017,-2.0592678
1421715035585.00,3.028053,-7.7390566,-1.6042141
1421715035586.00,2.0877085,-7.7592645,-1.3133688
1421715035587.00,2.2508693,-7.8891945,-1.7765057
1421715035605.00,2.3451731,-8.25189,-1.9814296
1421715035625.00,2.5800347,-8.571924,-2.2722747
1421715035648.00,2.4420218,-8.72341,-1.2063414
1421715035665.00,1.9272423,-8.60291,-0.51941985
1421715035685.00,2.1076171,-8.437654,-1.2615765
1421715035707.00,2.5399182,-8.05475,-1.7860858
1421715035727.00,2.4664211,-8.289612,-1.2305909
1421715035749.00,1.9073337,-8.307425,-1.1774515
1421715035765.00,1.832639,-8.546328,-1.5218853
1421715035785.00,2.1622536,-8.332273,-1.3427079
1421715035806.00,2.2547612,-8.232131,-1.1743081
1421715035825.00,2.016756,-8.419092,-0.4764592
1421715035846.00,1.9079324,-8.123607,0.278421
1421715035865.00,3.0575418,-8.409363,-0.85307604
1421715035932.00,3.6964133,-9.271271,-1.7456698
1421715035933.00,3.091072,-9.345067,-1.468596
1421715035934.00,2.9488678,-9.0004835,-1.7714163
1421715035949.00,2.9192295,-8.26626,-1.9094293
1421715035966.00,3.388204,-8.531508,-2.3849905
1421715035985.00,4.4468026,-10.017618,-3.6486626
1421715036005.00,5.905819,-13.36376,-5.1250424
1421715036029.00,6.8769994,-18.370848,-6.186186
1421715036050.00,3.4658926,-17.578995,-4.5161085
1421715036065.00,0.7803273,-14.115047,-2.8144474
1421715036086.00,-0.03502716,-11.35374,-0.9327104
1421715036105.00,-0.35326537,-8.363109,0.6831793
1421715036125.00,-0.11975098,-7.681875,-3.1927106
1421715036146.00,2.2695804,-10.239307,-4.287983
1421715036165.00,2.1924906,-10.158325,-3.8899608
1421715036240.00,1.4636563,-8.461904,-1.883084
1421715036242.00,1.3175601,-6.994355,-1.2418176
1421715036243.00,0.24189697,-5.447622,-1.3515395
1421715036253.00,-0.8599617,-4.696184,-1.5161971
1421715036269.00,-1.9490968,-5.2855086,-1.9957997
1421715036285.00,-2.3704705,-5.5411773,-1.607058
1421715036307.00,-2.2646406,-5.39538,-1.1835887
1421715036325.00,-1.8935623,-5.3088603,-0.9508228
1421715036345.00,-0.24084915,-5.8201966,-0.55549484
1421715036365.00,1.2891192,-6.786288,-0.42930725
1421715036386.00,3.6621346,-7.375313,-0.5825885
1421715036405.00,5.294041,-8.036637,-2.1670437
1421715036427.00,6.194269,-8.550369,-2.2480252
1421715036446.00,5.0246015,-8.3914,-2.4104376
1421715036465.00,3.259921,-8.297096,-2.537074
1421715036486.00,1.7681231,-9.504186,-3.4269736
1421715036548.00,0.6569838,-10.125244,-4.855004
1421715036549.00,0.012424164,-9.719139,-5.441784
1421715036550.00,-0.6421646,-9.715547,-4.3884244
1421715036566.00,-0.1420546,-8.7334385,-2.9678783
1421715036585.00,0.531844,-8.015532,-2.7235863
1421715036606.00,0.66027695,-8.023016,-3.2822247
1421715036626.00,0.92328,-9.90131,-5.2654505
1421715036646.00,2.3189776,-11.56525,-7.5727525
1421715036668.00,1.5956818,-11.989468,0.266895
1421715036690.00,-0.43619293,-12.444073,5.3289185
1421715036705.00,3.5274148,-18.119072,-8.91576
1421715036725.00,7.349866,-14.344071,-0.8692424
1421715036747.00,1.319506,-9.124426,5.814658
1421715036765.00,-0.91744214,-7.608977,7.452852
1421715036787.00,-0.6252498,-11.0211315,5.3212843
1421715036807.00,1.457519,-13.983471,-1.3454022
1421715036825.00,5.2039285,-13.627213,-3.6416273
1421715036884.00,4.935836,-12.071796,-1.837429
1421715036885.00,2.048041,-10.03573,1.1163784
1421715036889.00,1.101709,-8.717871,1.0765613
1421715036905.00,0.85307604,-8.849597,0.09804611
1421715036925.00,1.3748909,-8.704249,-0.92462724
1421715036945.00,2.4459138,-8.297396,-1.452729
1421715036965.00,2.5491989,-7.7074723,-1.5661931
1421715036987.00,2.7758276,-7.642657,-1.8366807
1421715037026.00,3.3230896,-7.2878947,-1.4491365
1421715037030.00,3.8002973,-7.103179,-1.8348843
1421715037045.00,3.3343163,-7.2402935,-2.0092716
1421715037068.00,2.3999593,-7.256011,-1.9255958
1421715037085.00,1.9699036,-7.3073545,-2.0978875
1421715037105.00,1.6757653,-7.0653076,-1.7241147
1421715037127.00,1.6254698,-7.5443115,-1.8676661
1421715037145.00,1.5591577,-8.187075,-0.47301635
1421715037212.00,1.9303857,-7.7540255,-1.3510904
1421715037213.00,2.645299,-7.736362,-1.081052
1421715037214.00,2.977159,-8.5943775,-0.055534516
1421715037225.00,3.0061986,-9.138197,-0.18501526
1421715037245.00,2.7134075,-8.851244,-0.40775207
1421715037266.00,1.7375866,-8.650361,0.05029541
1421715037285.00,2.0935464,-8.343799,0.07619156
1421715037307.00,2.3920257,-7.629484,0.45744872
1421715037332.00,2.0080743,-8.058941,0.30835876
1421715037357.00,2.4123833,-10.382858,-1.1364368
1421715037365.00,2.874622,-11.770174,-2.1887484
1421715037385.00,4.2635837,-15.641423,-3.4343083
1421715037405.00,3.776796,-19.002684,-5.901927
1421715037426.00,1.9419118,-19.011215,-5.25617
1421715037445.00,-0.35506165,-16.34556,-3.8053865
1421715037465.00,-0.97851515,-12.726235,-2.2858965
1421715037486.00,-0.97477293,-10.525512,-0.7879614
1421715037551.00,-1.4885046,-10.035581,-1.8761984
1421715037552.00,-0.8291258,-9.710607,-3.2633638
1421715037553.00,0.28725266,-9.724378,-2.9068053
1421715037565.00,0.50385225,-8.88672,-1.5929874
1421715037585.00,0.11061996,-7.8996725,-0.3278183
1421715037606.00,-0.49801436,-6.837781,0.11196716
1421715037625.00,-1.4286292,-6.069129,-0.17034577
1421715037646.00,-1.8811382,-5.9179435,-0.44652146
1421715037665.00,-2.0383112,-6.4734383,-0.8969348
1421715037686.00,-1.4605129,-6.8298473,-1.5214362
1421715037706.00,-0.9153465,-6.952442,-1.7176781
1421715037726.00,-0.6047424,-7.028634,-1.6724721
1421715037745.00,-0.17872833,-7.372319,-2.0302281
1421715037766.00,1.6437318,-8.556507,-3.6732116
1421715037788.00,2.8870463,-9.372011,-4.3405237
1421715037851.00,3.4678385,-10.127939,-6.133645
1421715037852.00,4.2933717,-10.194401,-7.41992
1421715037853.00,5.513784,-9.316476,-7.7261834
1421715037865.00,4.654122,-8.636889,-7.337442
1421715037885.00,1.8925145,-8.558602,-5.178631
1421715037906.00,1.4208454,-9.167087,-2.892435
1421715037925.00,0.33500335,-11.274704,-4.2032595
1421715037946.00,0.43035507,-15.822098,-4.412524
1421715037965.00,0.7759863,-14.590609,-3.8347256
1421715037986.00,-0.2350113,-9.429042,-4.3719583
1421715038006.00,-4.913682,-6.375692,1.7899777
1421715038025.00,-7.319928,-5.75134,2.9991632
1421715038046.00,-5.329667,-7.2917867,2.44771
1421715038066.00,-1.25993,-11.785293,2.793491
1421715038089.00,2.6864634,-12.82009,2.3165827
1421715038110.00,5.1949472,-10.682535,2.089954
1421715038181.00,4.859345,-9.080566,1.9540366
1421715038182.00,3.007396,-9.20855,0.7228468
1421715038183.00,0.9009764,-9.774374,-0.13471985
1421715038193.00,0.15552658,-9.8519125,-0.43978545
1421715038205.00,0.016316071,-10.1438055,0.08187973
1421715038226.00,-0.16435821,-9.972861,1.1061996
1421715038247.00,0.4459227,-9.386381,2.038461
1421715038265.00,1.377735,-9.233549,2.3522086
1421715038286.00,1.7827927,-9.1251745,1.9872675
1421715038306.00,1.8836828,-9.212293,1.7685722
1421715038325.00,2.0040326,-9.654623,1.7407302
1421715038345.00,2.1478834,-9.839489,2.2805076
1421715038366.00,1.9155666,-9.654324,1.9585272
1421715038386.00,2.042353,-9.078771,1.7649797
1421715038407.00,2.6156607,-8.812923,1.33687
1421715038427.00,3.4398468,-8.984317,1.8161732
1421715038446.00,4.0073166,-8.910221,1.5088623
1421715038502.00,4.0766225,-8.9690485,1.2222084
1421715038503.00,3.617228,-9.408086,1.2930112
1421715038514.00,3.1630723,-8.844658,1.126707
1421715038525.00,3.1018496,-8.787477,0.8587642
1421715038546.00,3.2546818,-8.956475,0.7643106
1421715038566.00,3.0774505,-9.254206,0.29668304
1421715038587.00,3.2956965,-9.457034,-0.07753876
1421715038607.00,2.76026,-9.642498,-0.43050477
1421715038625.00,1.8857785,-9.11754,-0.6303392
1421715038647.00,1.8273998,-8.8895645,0.5391788
1421715038666.00,1.7625847,-9.092991,1.3256433
1421715038686.00,1.7568965,-9.625134,1.4654526
1421715038707.00,2.226021,-10.269545,0.32736924
1421715038726.00,2.8873458,-12.0623665,-1.2355307
1421715038745.00,3.431614,-13.506563,-1.8781444
1421715038766.00,2.6661057,-13.5836525,-1.3576767
1421715038786.00,0.7393126,-12.469819,-1.7868342
1421715038880.00,-0.4367917,-11.94007,-3.2837214
1421715038882.00,-1.8441651,-11.3323345,-3.7214112
1421715038883.00,-2.7572663,-11.087294,-1.7411792
1421715038885.00,-3.4651442,-11.1127405,1.3889617
1421715038886.00,-4.386778,-11.130255,3.0945148
1421715038905.00,-4.8124924,-11.481574,3.4226327
1421715038925.00,-4.9624805,-11.872411,0.5017566
1421715038946.00,-2.2921834,-11.067535,-0.87627774
1421715038966.00,3.4802628,-10.051148,-2.4712112
1421715038986.00,3.2796798,-8.805888,-1.228645
1421715039006.00,0.60998154,-7.8203373,0.8454419
1421715039025.00,-0.68527496,-7.0653076,1.2931609
1421715039045.00,-0.8479866,-6.6422873,0.44427612
1421715039065.00,-0.53453845,-6.7023125,-0.29428804
1421715039086.00,-0.1898053,-6.6888404,-0.68677187
1421715039156.00,0.016166382,-6.3138704,-0.9663904
1421715039157.00,-0.09220825,-5.8685465,-1.2669654
1421715039158.00,-0.2532733,-5.9688377,-1.4504837
1421715039168.00,0.19264938,-6.9353776,-1.3386662
1421715039186.00,0.9744736,-7.5438623,-1.5148499
1421715039206.00,1.7877324,-7.7043285,-2.6556275
1421715039225.00,3.5200799,-9.283395,-6.473588
1421715039261.00,4.55892,-11.828852,-10.699151
1421715039267.00,3.3187487,-12.9854965,-9.24747
1421715039286.00,3.021916,-11.284135,-6.239475
1421715039305.00,2.3559508,-9.758357,-3.4896932
1421715039326.00,0.5105882,-8.211474,-1.4687457
1421715039345.00,-1.5798148,-7.193142,-2.314038
1421715039365.00,-3.0796957,-11.05047,-3.895649
1421715039385.00,-2.9524603,-17.99453,-4.8273115
1421715039412.00,-0.0597258,-13.884228,-4.733157
1421715039425.00,-2.7027795,-5.1669555,3.5447786
1421715039507.00,-5.32802,-4.3315425,4.971312
1421715039508.00,-5.244943,-5.1891093,3.809578
1421715039509.00,-2.7714868,-8.60276,4.437971
1421715039510.00,0.35371444,-13.119019,6.1023602
1421715039526.00,5.5793476,-15.0205145,-0.2667453
1421715039545.00,6.314319,-11.067984,-4.9859815
1421715039566.00,0.981509,-9.1853485,-0.4700226
1421715039587.00,-1.111289,-8.801397,1.8021026
1421715039606.00,-1.2461586,-9.197174,2.0972886
1421715039626.00,-0.16046631,-9.690997,0.5093907
1421715039645.00,1.2201128,-10.184521,-0.08053253
1421715039673.00,1.6046631,-9.743538,0.1061293
1421715039686.00,1.4054275,-9.3277025,0.77987826
1421715039706.00,1.3054353,-9.3944645,0.678539
1421715039725.00,1.7681231,-9.776021,-0.03637436
1421715039746.00,1.936523,-9.936787,-0.50924104
1421715039807.00,1.8269508,-9.613009,-0.7563771
1421715039808.00,1.3492942,-9.388776,-1.1319461
1421715039809.00,1.4768289,-9.270073,-1.9131715
1421715039826.00,1.5241306,-8.52148,-2.0871098
1421715039845.00,1.3651612,-7.2456827,-1.8999989
1421715039866.00,1.6907341,-7.7146573,-2.6803262
1421715039887.00,1.9279907,-8.9778805,-2.620301
1421715039907.00,1.5435901,-8.239915,-1.2717553
1421715039927.00,0.32677048,-6.5580125,0.67764086
1421715039948.00,-0.50355285,-5.2596126,0.1553769
1421715039966.00,0.30985564,-7.452103,-2.020199
1421715039986.00,0.9111552,-10.5041065,-2.3257136
1421715040006.00,0.2836601,-9.2360935,-0.21929398
1421715040026.00,0.026345216,-7.24703,1.0246193
1421715040046.00,1.0003697,-6.3532386,0.79035646
1421715040067.00,3.257077,-9.147926,-1.225801
1421715040130.00,3.1169682,-10.955567,-0.22049148
1421715040131.00,1.3768369,-9.273516,0.4671785
1421715040132.00,1.615291,-8.545729,0.46074188
1421715040146.00,1.2472064,-7.817194,0.84604067
1421715040166.00,1.025218,-6.7927246,0.6676117
1421715040186.00,2.4152274,-9.6898,-0.70144135
1421715040206.00,4.7047167,-13.353731,-2.623744
1421715040226.00,5.185816,-14.087505,-4.030369
1421715040245.00,3.6088455,-16.622784,-5.4208274
1421715040266.00,1.2623249,-19.102077,-5.928721
1421715040285.00,-0.16151413,-17.156124,-4.426445
1421715040306.00,-0.64261365,-13.623619,-2.7093658
1421715040326.00,-0.3248245,-11.128308,-0.71221894
1421715040345.00,-1.3262421,-9.528436,-0.91100556
1421715040367.00,-0.82074326,-10.332713,-1.3846207
1421715040391.00,-0.51462984,-10.974428,-2.9192295
1421715040407.00,-0.12948075,-10.280472,-2.4248075
1421715040454.00,-0.001646576,-8.563992,-1.3882132
1421715040455.00,-0.22273682,-6.6232767,-1.1867322
1421715040468.00,-1.0901829,-5.0201106,-1.4067746
1421715040486.00,-1.7012123,-5.0614247,-2.0258873
1421715040508.00,-1.8558408,-6.0737696,-2.0275338
1421715040526.00,-1.7455201,-6.2900696,-1.4341676
1421715040545.00,-1.3262421,-6.1845393,-1.0937755
1421715040566.00,-0.8789722,-6.0954742,-0.95097244
1421715040586.00,-0.5575905,-6.2155247,-0.79993653
1421715040607.00,-0.15148498,-5.9061184,-0.7934999
1421715040630.00,0.5824388,-5.7705,-0.8696915
1421715040646.00,1.287772,-5.839956,-1.2561878
1421715040665.00,2.9344976,-7.596553,-1.5286212
1421715040686.00,4.0248303,-9.997261,-2.3447242
1421715040706.00,4.419859,-11.422896,-2.547702
1421715040725.00,4.3737545,-10.070758,-2.7508297
1421715040799.00,3.695665,-9.129066,-3.4608033
1421715040800.00,2.458188,-9.143586,-4.386628
1421715040802.00,1.723516,-9.609567,-4.038602
1421715040810.00,0.88346285,-10.295141,-3.5765126
1421715040826.00,-0.53932846,-10.324929,-3.3177009
1421715040846.00,-0.37317398,-9.901609,-2.8659403
1421715040866.00,0.039517824,-9.320218,-3.5935771
1421715040886.00,0.82343763,-7.7371106,-3.439697
1421715040906.00,0.82837737,-7.460935,-2.3625371
1421715040926.00,-0.028291168,-8.342153,-2.8635452
1421715040946.00,0.775687,-9.739197,-5.10708
1421715040966.00,1.7046552,-11.40673,-2.8307633
1421715040986.00,1.0767109,-12.214899,3.3168027
1421715041006.00,0.14639556,-11.339819,3.3706906
1421715041027.00,-0.0371228,-12.649595,-0.60863435
1421715041046.00,-1.6250207,-18.008152,-5.118157
1421715041066.00,-0.48768586,-15.632892,-3.59208
1421715041086.00,0.33200958,-10.942096,3.6250117
1421715041180.00,1.127156,-9.745634,5.006489
1421715041180.00,1.4009367,-11.942017,4.0453377
1421715041181.00,1.8125807,-12.622951,1.3230987
1421715041182.00,2.6774821,-12.240196,-0.20731887
1421715041209.00,2.3511608,-10.393337,-0.90786207
1421715041216.00,0.7884105,-9.078471,-0.3519182
1421715041230.00,-0.2255809,-8.057744,-0.2969824
1421715041247.00,-0.459245,-7.8264747,-0.60728717
1421715041266.00,-0.37721556,-7.474257,-0.104033664
1421715041286.00,0.058228914,-7.235803,0.43739045
1421715041306.00,0.95875627,-7.257508,-0.7813751
1421715041326.00,2.5388703,-7.732919,-2.9159362
1421715041346.00,3.1995964,-8.303682,-2.6634114
1421715041366.00,3.108885,-8.643775,-1.527274
1421715041386.00,3.0157785,-7.90087,-2.1055214
1421715041457.00,2.4611819,-8.344398,-2.4542964
1421715041458.00,2.2579048,-8.818761,-3.9944434
1421715041459.00,1.7947677,-8.086035,-2.183659
1421715041467.00,0.7702982,-7.4500074,0.21585113
1421715041486.00,1.212778,-8.192164,-0.67958677
1421715041506.00,2.6544302,-9.075478,-2.1228855
1421715041526.00,1.5823594,-8.4166975,-0.8214917
1421715041546.00,-0.16360977,-9.013058,-1.1620336
1421715041566.00,-0.1553769,-9.114546,-1.2985497
1421715041586.00,0.29563522,-8.516989,-0.34742752
1421715041606.00,0.53393966,-8.360564,-0.45625123
1421715041627.00,0.9969269,-8.983718,-0.3606001
1421715041646.00,1.7568965,-9.2063055,-1.065185
1421715041666.00,2.8065138,-9.318273,-1.6259189
1421715041686.00,2.826722,-9.286838,-1.5160474
1421715041709.00,2.501598,-10.72849,-1.0861413
1421715041728.00,2.0419037,-11.090886,-0.8520282
1421715041785.00,3.0552964,-14.708862,-3.8522391
1421715041786.00,1.8070422,-18.91841,-7.4732094
1421715041787.00,-1.9339783,-17.50909,-7.5732017
1421715041810.00,-2.973716,-14.306649,-4.3128314
1421715041826.00,-1.7315991,-11.616144,-2.5962012
1421715041847.00,-1.3076806,-9.792187,-0.1287323
1421715041866.00,-1.0644364,-9.11784,-0.41703278
1421715041888.00,-0.68677187,-9.715996,-3.5595977
1421715041906.00,0.061072998,-10.589728,-3.6821928
1421715041926.00,-0.2999762,-9.63711,-1.9651135
1421715041946.00,-0.060773622,-8.255333,-0.07694
1421715041966.00,-0.44442582,-6.582711,-0.31404695
1421715041990.00,-1.0365944,-5.444628,-1.8130298
1421715042008.00,-1.8047969,-5.6097345,-2.5265958
1421715042026.00,-2.3623874,-6.7388363,-2.3246658
1421715042047.00,-1.9378701,-7.377708,-1.6789087
1421715042067.00,-1.0991642,-7.2859488,-1.5145504
1421715042125.00,-0.45864624,-7.1052747,-1.551374
1421715042126.00,0.035775606,-7.3076534,-1.7003142
1421715042127.00,0.123193815,-7.9411364,-1.898502
1421715042148.00,0.28246263,-8.339159,-2.3671775
1421715042168.00,0.73152876,-8.64153,-2.4815397
1421715042188.00,1.565295,-9.092392,-2.4538472
1421715042213.00,2.239493,-9.519304,-2.0457957
1421715042232.00,2.706971,-8.910071,-2.2611978
1421715042249.00,2.963687,-8.5601,-2.767894
1421715042266.00,2.296674,-9.005124,-2.750081
1421715042286.00,0.95216995,-9.758507,-3.1549892
1421715042306.00,-0.23980133,-9.434281,-2.8527677
1421715042326.00,-0.6683601,-8.686886,-2.8008256
1421715042347.00,-0.09639954,-8.85304,-3.453618
1421715042367.00,0.23875351,-9.532028,-3.2799792
1421715042420.00,-0.40400985,-8.954978,-1.9272423
1421715042421.00,-0.19025436,-7.547455,-0.38589752
1421715042426.00,0.42017624,-6.5810647,-0.2773732
1421715042446.00,1.0223739,-6.975644,-0.7580237
1421715042466.00,1.1344908,-8.19905,-1.3184582
1421715042486.00,0.7470964,-8.741372,-1.0515633
1421715042506.00,0.24129821,-7.931107,-0.63093793
1421715042528.00,-0.121996306,-7.866741,-1.0672805
1421715042551.00,-0.1261876,-7.995773,-1.9152672
1421715042566.00,0.37631744,-8.270302,-3.3605118
1421715042586.00,1.0846444,-9.476793,-3.8621187
1421715042606.00,1.8842816,-11.249107,-1.2491524
1421715042626.00,1.9654129,-12.2151985,1.3997393
1421715042646.00,1.8435663,-15.519427,0.062420197
1421715042666.00,6.421646,-19.02858,-14.031073
1421715042686.00,3.9236407,-14.235397,4.696334
1421715042769.00,-0.68422717,-8.35817,7.310947
1421715042770.00,-0.15283218,-7.008875,6.4201493
1421715042771.00,0.92836946,-11.994857,4.4176135
1421715042772.00,0.90786207,-13.274845,2.2631438
1421715042786.00,1.0809022,-11.618689,-0.3318599
1421715042806.00,2.188898,-9.667946,-1.9336789
1421715042826.00,0.7949968,-7.7544746,-2.2373972
1421715042846.00,0.20776795,-7.6703496,-1.4028827
1421715042867.00,0.5324428,-8.814869,0.51747394
1421715042886.00,0.65518755,-8.936417,1.1443703
1421715042906.00,0.96863574,-9.273665,0.040415954
1421715042926.00,1.7899777,-9.131012,-2.6071284
1421715042946.00,2.1700373,-8.916059,-3.1460078
1421715042966.00,2.1912932,-9.104816,-1.8318906
1421715042986.00,1.5072157,-8.931177,-0.8783734
1421715043006.00,1.7455201,-8.687185,-1.1123369
1421715043029.00,1.9431093,-8.517588,-2.1251307
1421715043100.00,1.7417779,-8.414153,-2.8062143
1421715043101.00,1.7940193,-8.888966,-1.9733464
1421715043102.00,1.4855108,-8.2301855,-0.17678238
1421715043112.00,0.5505551,-7.3962693,-0.20806733
1421715043126.00,1.2677138,-7.5592804,-1.405128
1421715043146.00,2.5511448,-8.578212,-2.0727396
1421715043166.00,1.0166858,-8.455168,-0.9716295
1421715043188.00,-0.21989273,-8.387508,-0.7589218
1421715043209.00,0.15702347,-8.234377,-1.0277628
1421715043226.00,0.3158432,-8.140372,-0.73721695
1421715043247.00,1.2302916,-8.625962,-0.5923183
1421715043267.00,1.2391232,-8.330177,-0.32063323
1421715043286.00,1.0692265,-8.965157,-0.8788225
1421715043306.00,1.3377681,-9.296268,-1.4528787
1421715043327.00,1.8655705,-9.019494,-1.4965879
1421715043392.00,2.3188279,-8.378976,-0.6797365
1421715043393.00,2.439477,-8.778195,-1.1410772
1421715043394.00,2.181713,-9.876761,-1.9160156
1421715043406.00,2.3638842,-11.808345,-4.353098
1421715043427.00,3.4370027,-15.348034,-6.1387343
1421715043446.00,1.8158739,-18.905386,-7.7098675
1421715043466.00,-2.5909622,-18.202148,-6.2204647
1421715043486.00,-3.4579592,-13.727354,-3.883674
1421715043508.00,-1.8866767,-9.642049,-2.6637108
1421715043536.00,-1.3310322,-8.351133,-1.8134788
1421715043547.00,-2.4475603,-9.89173,-3.455115
1421715043566.00,-1.0211765,-11.005863,-4.614604
1421715043587.00,-0.30835876,-9.4772415,-3.7769458
1421715043606.00,-0.40161484,-8.238717,-2.7806177
1421715043626.00,-0.40505767,-7.1341643,-1.925446
1421715043649.00,-1.033451,-5.95327,-1.6753162
1421715043666.00,-1.585503,-5.3612514,-1.898502
1421715043744.00,-2.144291,-6.019732,-2.3366408
1421715043746.00,-2.1775217,-6.722221,-2.6406586
1421715043747.00,-2.13037,-6.9240017,-2.898273
1421715043748.00,-1.757645,-6.4036837,-2.705025
1421715043767.00,-1.169518,-6.0718236,-2.6692493
1421715043786.00,-0.508792,-5.7646623,-2.22168
1421715043806.00,0.031434633,-5.759124,-1.8268012
1421715043826.00,0.62016034,-6.163433,-1.8992505
1421715043846.00,1.1967614,-7.0868626,-1.9875668
1421715043873.00,2.0082238,-8.2462015,-2.3718178
1421715043886.00,2.6563761,-8.930878,-2.4932153
1421715043906.00,3.0279036,-9.045091,-2.3222709
1421715043927.00,3.0186226,-8.733738,-2.5460556
1421715043946.00,2.5408163,-8.567285,-3.2665071
1421715043966.00,1.4682966,-9.323662,-4.071084
1421715043986.00,0.8662486,-10.653047,-4.6125083
1421715044006.00,0.5351372,-10.130184,-5.095404
1421715044061.00,0.61537033,-9.799821,-4.6656475
1421715044062.00,0.97402453,-9.734108,-3.9689965
1421715044066.00,1.1145822,-9.819281,-3.197351
1421715044086.00,0.83915496,-9.554631,-3.1472054
1421715044106.00,0.45505372,-8.860824,-3.5539095
1421715044127.00,0.2549199,-8.499925,-3.895649
1421715044146.00,0.3240761,-7.5107813,-3.7133281
1421715044167.00,0.39203477,-7.2730756,-2.8972251
1421715044188.00,0.50355285,-9.535471,-1.8047969
1421715044209.00,0.54471725,-11.308384,-0.9574091
1421715044226.00,0.25985962,-12.660073,-0.52001864
1421715044246.00,-0.24788453,-14.760356,-0.8409512
1421715044267.00,1.3463004,-18.911972,-12.466526
1421715044286.00,-0.49861312,-12.389885,1.4127622
1421715044306.00,-1.7953665,-9.299112,7.8091106
1421715044329.00,-0.3489244,-8.452772,6.827452
1421715044390.00,1.2255015,-11.435919,5.125791
1421715044391.00,1.9470012,-12.122242,1.7164806
1421715044392.00,4.4843745,-12.543765,-3.2813265
1421715044406.00,4.531377,-10.377919,-3.746559
1421715044431.00,0.86729646,-8.292605,-0.2667453
1421715044450.00,-0.42526567,-7.620353,1.2299923
1421715044466.00,-0.4788542,-8.533305,0.5122348
1421715044486.00,0.21375549,-8.808283,-1.5420932
1421715044506.00,1.2772938,-8.971594,-2.0405567
1421715044536.00,2.0299287,-8.925489,-1.0448272
1421715044547.00,2.4276516,-9.173374,-0.8370593
1421715044568.00,2.7177484,-9.3470125,-1.3695021
1421715044586.00,2.1936882,-9.159902,-1.7504599
1421715044606.00,1.6042141,-8.895252,-1.4391074
1421715044626.00,1.3494438,-9.024135,-1.2033477
1421715044647.00,1.6820521,-9.044941,-1.7503102
1421715044729.00,1.6592995,-8.937315,-1.0638378
1421715044730.00,1.633553,-8.555459,-0.88825285
1421715044731.00,1.5864011,-8.085136,-1.6265177
1421715044732.00,1.4552737,-8.264315,-2.315385
1421715044746.00,0.99587905,-8.600216,-1.8154248
1421715044767.00,0.94962525,-8.923992,-1.823059
1421715044786.00,1.0698253,-8.441396,-1.9818786
1421715044806.00,1.059347,-7.195836,-1.0379416
1421715044826.00,-0.01886078,-7.3390884,-0.35670823
1421715044846.00,0.30880782,-9.280102,-1.2106824
1421715044866.00,1.703308,-9.160501,-1.7208215
1421715044887.00,1.8407222,-8.116721,-1.1198213
1421715044906.00,1.3745915,-7.8468323,-0.41104522
1421715044927.00,1.8024019,-8.620125,-0.78526706
1421715044947.00,2.1239333,-9.302106,-0.83152086
1421715044966.00,2.153871,-9.420959,-1.3639636
1421715044986.00,2.411186,-9.593849,-1.3307327
1421715045094.00,1.3501923,-8.686736,-0.20642075
1421715045095.00,1.119522,-8.358318,-0.4736151
1421715045096.00,1.5416441,-9.019494,-0.9767189
1421715045098.00,2.309248,-9.776619,-1.235381
1421715045099.00,2.7967842,-11.811338,-2.0386107
1421715045120.00,3.431614,-14.480587,-2.4421716
1421715045126.00,2.4200175,-17.443676,-5.3582573
1421715045146.00,0.3875441,-16.425493,-6.7638345
1421715045166.00,-0.16959733,-14.832954,-5.8772283
1421715045186.00,-0.120200045,-13.257331,-3.7896693
1421715045206.00,-0.061671752,-11.614048,-1.2470567
1421715045226.00,-1.171464,-8.649613,-1.1231145
1421715045247.00,-1.9270926,-7.692204,-2.1016297
1421715045272.00,-0.6474037,-9.24762,-3.6148329
1421715045288.00,0.9970766,-10.067914,-2.8997698
1421715045309.00,0.8095166,-8.645272,-1.9842737
1421715045376.00,-0.11915222,-6.929989,-1.2365785
1421715045381.00,-1.5173945,-5.5660253,-1.5254778
1421715045382.00,-2.282753,-5.4763618,-1.511407
1421715045392.00,-2.5595274,-6.1343937,-1.9673588
1421715045406.00,-1.9182609,-6.511609,-2.191892
1421715045426.00,-1.395548,-6.16972,-2.3459215
1421715045446.00,-1.119971,-5.9541683,-1.9417621
1421715045467.00,-1.1229647,-5.493576,-1.4561719
1421715045486.00,-0.97746736,-5.128485,-1.1771522
1421715045506.00,-0.757874,-5.788313,-1.6064594
1421715045531.00,-0.024099885,-6.4919996,-1.2463083
1421715045546.00,1.71678,-7.8363543,-1.457519
1421715045566.00,3.2458503,-9.089099,-2.243235
1421715045586.00,4.151467,-10.485695,-2.0893552
1421715045606.00,3.523822,-11.123669,-2.767445
1421715045626.00,2.1237836,-10.101594,-3.7784426
1421715045688.00,1.4217435,-9.562116,-4.642895
1421715045689.00,1.8053956,-10.316996,-5.469027
1421715045690.00,1.4751823,-10.589878,-4.700675
1421715045714.00,0.001646576,-9.375454,-4.4721003
1421715045726.00,-1.6693286,-8.224347,-3.2037878
1421715045746.00,-2.055825,-8.084089,0.25985962
1421715045767.00,-1.3795313,-8.037685,0.59351575
1421715045787.00,-0.44382706,-9.024882,-3.746559
1421715045807.00,1.4844631,-9.983339,-9.286987
1421715045826.00,1.5837066,-11.517499,-7.7092686
1421715045846.00,0.46089157,-13.311968,-2.4971073
1421715045866.00,0.20432511,-12.778626,1.6046631
1421715045887.00,0.628992,-10.012528,3.2852182
1421715045908.00,2.1671934,-13.765675,-1.8977536
1421715045929.00,6.53032,-17.987045,-10.635384
1421715045946.00,0.20058289,-11.299104,1.941313
1421715045966.00,-3.160378,-9.118288,5.447472
1421715046044.00,-1.8282981,-10.294393,4.605623
1421715046045.00,-0.8583151,-12.904964,0.23111938
1421715046048.00,2.659819,-13.150603,-2.2110522
1421715046049.00,3.302732,-11.113489,-1.3721966
1421715046066.00,1.7030085,-9.898466,0.66701293
1421715046086.00,0.2377057,-8.69467,0.69246
1421715046108.00,0.28605515,-8.2848215,0.051193543
1421715046129.00,0.82643145,-8.571476,-0.31659165
1421715046149.00,1.0735675,-8.884475,-1.1162288
1421715046166.00,0.84199905,-8.921747,-1.6136444
1421715046186.00,0.8894504,-8.865764,-1.8805394
1421715046206.00,1.5840061,-8.963361,-1.7386345
1421715046227.00,2.2426364,-8.897797,-2.087559
1421715046246.00,2.580484,-8.759634,-2.569407
1421715046266.00,2.0622616,-8.402328,-2.2118006
1421715046326.00,1.4260844,-8.426277,-1.4597644
1421715046326.00,1.173859,-8.653805,-1.0400373
1421715046328.00,1.3681549,-8.639434,-1.6289127
1421715046347.00,2.004332,-8.249196,-2.2353017
1421715046367.00,1.7971628,-8.235274,-2.3150856
1421715046387.00,1.4203963,-9.14134,-1.8178198
1421715046406.00,0.99992067,-9.256451,-1.2088861
1421715046429.00,0.37287462,-8.223898,0.05763016
1421715046446.00,0.6300398,-7.856562,-0.9770183
1421715046466.00,1.2696598,-8.373736,-1.679208
1421715046486.00,1.1861334,-9.161848,-1.5158976
1421715046506.00,0.266895,-9.048683,0.3411406
1421715046526.00,0.10642868,-7.959548,-0.42751098
1421715046546.00,1.3174105,-8.009694,-0.8548723
1421715046570.00,1.7447717,-8.517737,-0.69066375
1421715046588.00,0.96953386,-9.400452,-0.88855225
1421715046610.00,0.3851491,-9.427396,-0.5149292
1421715046671.00,0.28755203,-8.873098,-0.31240037
1421715046672.00,1.18299,-8.493338,-0.73093003
1421715046673.00,2.5704546,-9.333092,-1.2657678
1421715046686.00,2.2171893,-9.873618,-1.0328522
1421715046707.00,2.0017872,-10.161619,-1.1270064
1421715046726.00,1.7720151,-11.475287,-1.79851
1421715046746.00,2.0887563,-15.787669,-4.183201
1421715046770.00,0.33485368,-17.26854,-6.591992
1421715046791.00,-1.5750247,-15.230977,-6.427933
1421715046813.00,-1.7812958,-13.48875,-4.3519
1421715046827.00,-1.2648697,-12.134815,-2.836152
1421715046847.00,-0.5363347,-10.820997,-0.7879614
1421715046866.00,-0.9352551,-9.707164,-1.0283616
1421715046886.00,-0.9187894,-10.048305,-3.2043865
1421715046910.00,0.029638367,-11.051968,-3.714376
1421715046930.00,-0.19624192,-9.791738,-2.5676107
1421715047001.00,-0.30087432,-8.315508,-1.5781682
1421715047002.00,-0.8089178,-6.661148,-1.7483642
1421715047003.00,-1.2740006,-5.9380016,-2.1694386
1421715047012.00,-1.9600241,-6.098019,-2.490521
1421715047026.00,-2.688559,-6.399043,-2.111509
1421715047046.00,-2.713108,-6.1313996,-2.098636
1421715047067.00,-1.9990928,-5.435347,-1.809587
1421715047086.00,-1.6067587,-5.041666,-1.4498849
1421715047106.00,-1.5884967,-4.815187,-0.9062155
1421715047127.00,-1.4072237,-4.756359,-0.470771
1421715047148.00,-1.4471905,-5.0156198,-0.69455564
1421715047167.00,-1.0874885,-6.3122234,-0.93660235
1421715047186.00,0.12484039,-7.39118,-1.4596148
1421715047207.00,1.7314495,-8.676258,-2.2269192
1421715047226.00,3.5643878,-9.782008,-2.4156766
1421715047246.00,4.7755194,-10.816807,-2.3772066
1421715047267.00,3.7872744,-10.227931,-3.8839731
1421715047287.00,1.7458196,-9.523645,-4.3330393
1421715047371.00,0.9779164,-9.55029,-4.52988
1421715047372.00,0.70683014,-10.851085,-5.7833734
1421715047373.00,0.033081207,-10.946736,-6.210136
1421715047374.00,-0.58468413,-10.0626745,-5.291047
1421715047454.00,-1.549428,-9.256302,-4.0218368
1421715047455.00,-2.0826192,-7.9941263,-4.2261615
1421715047456.00,-2.615062,-8.875493,-6.3484483
1421715047457.00,-1.8761984,-9.991123,-6.2007055
1421715047473.00,-0.0902623,-11.445798,-1.0728191
1421715047519.00,1.7961149,-12.626543,3.2382162
1421715047520.00,2.4089406,-13.892012,3.2153137
1421715047526.00,1.2475058,-18.56649,-0.7884105
1421715047554.00,4.873266,-17.864151,-9.447304
1421715047571.00,-1.0165361,-9.9302,3.0159283
1421715047642.00,-3.8727465,-8.133785,7.1048255
1421715047643.00,-3.4886453,-8.664283,6.8409243
1421715047644.00,-3.3135095,-10.795251,3.8966968
1421715047654.00,-1.7107924,-12.3454275,2.2156925
1421715047667.00,0.22617966,-11.704161,1.5947837
1421715047686.00,1.2237053,-9.407337,1.1073972
1421715047706.00,1.1596385,-7.9876895,-1.0353969
1421715047727.00,0.31195128,-8.276139,-0.9595047
1421715047746.00,0.062869266,-8.868158,1.2768447
1421715047766.00,-0.20133133,-8.914263,2.8162436
1421715047786.00,0.24519013,-9.019494,2.8279192
1421715047808.00,1.0665321,-9.121582,1.8815873
1421715047826.00,1.6786094,-9.205856,0.6611751
1421715047847.00,2.1850061,-9.485624,-0.21734802
1421715047866.00,2.0097208,-9.946067,-0.6885681
1421715047887.00,1.8058448,-9.900711,0.082927555
1421715047953.00,1.7950672,-9.798325,0.78406954
1421715047954.00,1.5664924,-9.946366,0.5724097
1421715047955.00,1.8917661,-9.929602,0.34682876
1421715047967.00,2.360142,-10.087972,-4.49E-04
1421715047986.00,2.2135968,-10.0980015,-1.0946736
1421715048007.00,1.5548167,-10.724149,-0.8875044
1421715048027.00,0.9645941,-10.844349,0.3492238
1421715048047.00,1.0687774,-10.81501,0.547711
1421715048067.00,0.954565,-10.519525,-0.38335282
1421715048088.00,0.8866063,-11.012898,-2.5863218
1421715048106.00,1.0244696,-12.113111,-2.1968317
1421715048127.00,0.62854296,-12.260405,-0.001496887
1421715048147.00,-0.6382727,-11.392509,0.5243596
1421715048166.00,-1.3461506,-10.701246,-1.5495776
1421715048187.00,-1.8559904,-10.758877,-2.7258315
1421715048207.00,-2.7840605,-10.674303,-1.5626006
1421715048226.00,-3.7562888,-10.612481,-0.3580554
1421715048283.00,-4.3267527,-10.524015,0.6078859
1421715048284.00,-4.7186375,-10.17569,0.9298663
1421715048293.00,-4.19338,-9.834699,2.643952
1421715048307.00,-3.0503569,-10.067615,1.4200969
1421715048327.00,-1.3183086,-9.919422,-0.90037763
1421715048346.00,0.68841845,-9.532028,-2.4921675
1421715048366.00,0.6081853,-8.851993,-1.4361136
1421715048387.00,-0.19624192,-8.132738,-0.31240037
1421715048407.00,-0.5201683,-7.5967026,0.2811154
1421715048436.00,-0.5287006,-7.40076,0.5507048
1421715048447.00,-0.31674135,-7.6486444,0.183219
1421715048468.00,-0.43724075,-7.059919,-0.9054671
1421715048488.00,-0.40909928,-6.8879266,-1.8637743
1421715048508.00,-0.42421782,-6.730454,-1.5660434
1421715048527.00,-0.12708573,-7.6684036,-0.78631485
1421715048548.00,0.19354752,-8.274044,-0.8162526
1421715048654.00,0.8457413,-8.85798,-2.1149518
1421715048655.00,1.8239571,-9.469459,-5.219795
1421715048656.00,2.6502388,-10.191856,-8.151898
1421715048657.00,2.524201,-10.554852,-7.8103085
1421715048658.00,2.2790108,-10.126741,-6.041287
1421715048666.00,1.9041902,-9.624086,-5.2052755
1421715048686.00,1.5985259,-9.624536,-3.6771035
1421715048707.00,0.2775229,-8.913514,-3.2192056
1421715048726.00,-1.11563,-8.197553,-2.8062143
1421715048747.00,-1.8423687,-8.018974,-2.160607
1421715048767.00,-1.7940193,-10.3882475,-3.4908907
1421715048786.00,-0.40116578,-16.115337,-6.056256
1421715048806.00,-0.24668701,-15.017671,-4.362079
1421715048827.00,-1.8615289,-8.612191,-1.5120058
1421715048851.00,-3.5100508,-4.757706,2.78436
1421715048868.00,-4.4694057,-5.163512,3.6462677
1421715048889.00,-4.1507187,-7.258406,3.1244526
1421715048977.00,-1.7392333,-11.078313,3.0332923
1421715048978.00,2.924768,-13.308525,1.2057426
1421715048979.00,5.149292,-11.412867,-1.9372715
1421715048980.00,1.9621197,-9.049282,0.11720627
1421715048990.00,-0.9144484,-8.798853,1.7125887
1421715049007.00,-1.6699274,-9.512119,1.7562977
1421715049027.00,-1.205593,-9.978848,-0.083975375
1421715049047.00,-0.61686724,-10.267299,-0.23590942
1421715049069.00,-0.40894958,-9.784253,0.5008585
1421715049087.00,-0.53902906,-9.230106,1.3843213
1421715049109.00,-0.38155654,-9.30974,1.873504
1421715049128.00,-0.1074765,-9.2046585,1.6247214
1421715049149.00,0.21644989,-9.560768,1.4106665
1421715049168.00,0.4460724,-9.615106,1.1105406
1421715049187.00,0.4538562,-9.690249,1.087788
1421715049206.00,0.3659889,-9.642348,1.1087444
1421715049315.00,0.37287462,-9.525742,1.5473323
1421715049316.00,0.87552935,-9.282198,1.3093272
1421715049317.00,1.3358221,-9.211395,1.0849439
1421715049318.00,1.669179,-9.316925,0.33081207
1421715049319.00,2.1877007,-9.44925,-0.122445375
1421715049330.00,2.570754,-9.544601,-0.10044113
1421715049347.00,2.7608588,-9.983639,0.124391325
1421715049367.00,3.179538,-10.380014,0.22513184
1421715049387.00,2.9861403,-10.373878,-0.6274951
1421715049407.00,1.8119819,-10.393637,-1.5112573
1421715049427.00,0.16899857,-10.428963,-1.9320323
1421715049447.00,-1.1228151,-10.65619,-1.9815793
1421715049467.00,-2.3159838,-13.052108,-3.5796561
1421715049486.00,-0.30192214,-14.90735,-2.376009
1421715049507.00,-0.963696,-14.620546,-1.9766395
1421715049575.00,-1.8714083,-12.92607,-2.4478598
1421715049576.00,-2.1547692,-11.714939,-2.3673272
1421715049577.00,-2.5456064,-11.539503,-0.034428407
1421715049587.00,-3.973936,-11.535013,1.940864
1421715049607.00,-4.638105,-10.010134,3.4509237
1421715049627.00,-3.028652,-9.942624,4.004772
1421715049646.00,-2.7282267,-9.939032,0.7526349
1421715049668.00,-1.9040406,-10.216555,-3.2067814
1421715049693.00,-0.1672023,-9.634714,-0.8833131
1421715049708.00,0.52570677,-8.74227,0.09415421
1421715049737.00,0.038170625,-6.902596,0.524659
1421715049751.00,-0.5758525,-6.1011624,0.8611592
1421715049767.00,-0.7141649,-5.8517814,0.7789801
1421715049787.00,-0.9753717,-6.049969,0.26839188
1421715049807.00,-0.68811905,-6.348598,-0.3198848
1421715049827.00,-0.5849835,-6.5032263,-0.62839323
1421715049847.00,-0.3583548,-5.7082295,-0.8364606
1421715049866.00,-0.023800507,-6.4526315,-0.2189946
1421715049916.00,-0.088016964,-7.2413416,-0.58618104
1421715049917.00,-0.3264711,-8.743019,-2.3980134
1421715049927.00,1.3299843,-11.74832,-6.4505363
1421715049947.00,4.0324645,-14.621594,-12.247082
1421715049967.00,4.0875497,-11.859089,-9.502689
1421715049987.00,2.713108,-9.301956,-4.3498044
1421715050006.00,1.8125807,-8.52103,-1.2129277
1421715050028.00,0.8114626,-7.8983254,0.7640112
1421715050053.00,-0.7244934,-7.317084,0.76371187
1421715050068.00,-2.12543,-10.338551,-0.52989805
1421715050087.00,-2.82283,-17.72554,-2.1457877
1421715050107.00,1.0826985,-17.515825,-9.681717
1421715050127.00,0.5960605,-9.708811,-4.845274
1421715050147.00,-3.945645,-5.437892,2.412533
1421715050167.00,-5.7347245,-3.910468,4.766538
1421715050190.00,-5.0859737,-4.978946,4.324058
1421715050273.00,-2.8768675,-8.842562,3.6437228
1421715050274.00,-0.52825147,-12.710518,3.1528935
1421715050275.00,1.7887802,-13.0489645,1.6166382
1421715050275.00,3.588338,-10.421179,-1.9603235
1421715050289.00,3.5220258,-9.525292,-2.8291168
1421715050307.00,1.0237212,-9.847871,0.020806732
1421715050330.00,-0.57031405,-10.222242,0.89498883
1421715050351.00,-1.04348,-10.308763,0.12963043
1421715050374.00,-0.8222401,-9.900861,-0.28964767
1421715050387.00,-0.61087966,-9.461824,0.475112
1421715050411.00,-0.5189708,-9.326955,1.4293776
1421715050427.00,0.1472937,-9.277707,1.5786172
1421715050447.00,0.88091815,-9.282946,1.4100678
1421715050467.00,1.5479311,-9.507329,0.9665401
1421715050487.00,1.7106427,-9.746233,0.14908996
1421715050512.00,0.9804611,-9.808952,-0.6113287
1421715050527.00,0.6503975,-9.661658,-1.8914666
1421715050577.00,0.7203021,-9.162746,-3.3608112
1421715050578.00,-0.02005829,-8.509804,-2.144291
1421715050588.00,-0.9581575,-8.29066,-0.23201752
1421715050607.00,-0.68841845,-7.7660007,-0.25177643
1421715050627.00,0.5701643,-7.31903,-0.7656578
1421715050647.00,0.7012917,-6.476582,-0.39996827
1421715050667.00,0.966091,-7.817194,-0.60803556
1421715050688.00,1.027613,-9.274264,-1.547482
1421715050707.00,0.9900412,-8.780142,-0.2203418
1421715050727.00,0.49082932,-6.9246,0.599653
1421715050750.00,0.46343628,-7.0524344,0.32302827
1421715050768.00,1.8863772,-9.862391,0.6635701
1421715050787.00,2.288591,-10.086925,-0.6391708
1421715050807.00,1.68789,-8.729696,-1.2308904
1421715050827.00,0.5177733,-7.48264,-0.32976425
1421715050881.00,1.6209792,-8.330477,-0.48828462
1421715050882.00,2.84678,-10.587933,-0.920885
1421715050890.00,3.0530512,-10.503657,-1.267564
1421715050907.00,2.8292665,-9.3083935,-1.2802876
1421715050927.00,2.6211991,-9.025481,-1.1743081
1421715050952.00,1.816772,-8.947344,-1.0347981
1421715050967.00,1.1811937,-9.326655,-2.3258634
1421715050987.00,1.2003539,-11.822415,-4.1489224
1421715051006.00,2.7181976,-17.174236,-5.157824
1421715051027.00,1.3106744,-19.253712,-6.2396245
1421715051047.00,-0.07529343,-16.690292,-4.3605824
1421715051068.00,-0.6185138,-13.537997,-2.8107052
1421715051087.00,-0.28081605,-11.163635,-1.4485377
1421715051107.00,-0.6658154,-9.7216835,-1.5789167
1421715051126.00,0.34682876,-9.818233,-2.8264225
1421715051146.00,1.2976515,-9.908345,-2.4890242
1421715051168.00,1.4856606,-8.968899,-1.6078066
1421715051239.00,1.0978171,-7.1379066,-1.5531702
1421715051240.00,0.1366658,-5.5977592,-1.767225
1421715051240.00,-0.88989943,-4.969516,-2.0010388
1421715051251.00,-1.7420774,-4.9383807,-1.7360898
1421715051267.00,-1.8818866,-5.384004,-1.6389418
1421715051287.00,-1.8456619,-6.008655,-1.8179696
1421715051306.00,-1.6051122,-6.8421216,-2.3544538
1421715051326.00,-1.2281959,-7.0498896,-2.2661376
1421715051347.00,-0.4698729,-6.8045497,-2.0637584
1421715051367.00,0.22109024,-6.9519935,-2.0568726
1421715051387.00,0.6727011,-7.161707,-2.4339385
1421715051407.00,1.0533595,-7.6523867,-2.345772
1421715051427.00,1.8323396,-8.291408,-2.1427941
1421715051448.00,2.6595194,-9.092991,-1.8625767
1421715051469.00,3.2665071,-9.823472,-1.9949015
1421715051488.00,3.5024166,-9.384584,-2.6057813
1421715051563.00,2.6168582,-9.770931,-3.3834143
1421715051564.00,1.5591577,-10.368039,-3.6940184
1421715051566.00,0.8960367,-10.548714,-4.040847
1421715051567.00,1.8444644,-10.162966,-4.4033933
1421715051587.00,2.2189856,-9.655372,-3.901786
1421715051607.00,1.5507752,-9.441017,-3.0792468
1421715051627.00,0.16450791,-8.67027,-1.73115
1421715051647.00,-0.7209009,-7.6742415,-0.9330098
1421715051667.00,-0.8972342,-7.2317615,-0.737666
1421715051703.00,-1.027164,-7.425608,-0.9134006
1421715051709.00,-0.34188902,-7.2744226,-1.5507752
1421715051729.00,0.7141649,-7.15063,-1.979334
1421715051747.00,1.2560381,-7.6290355,-2.2132974
1421715051767.00,0.53902906,-8.157287,-2.844834
1421715051788.00,0.0676593,-10.566227,-5.6982007
1421715051807.00,2.2061124,-14.123879,-11.190879
1421715051827.00,3.0183234,-14.179863,-4.4792852
1421715051889.00,1.0644364,-10.526859,7.1268296
1421715051890.00,-0.57794815,-9.187594,-0.12813355
1421715051891.00,-2.242936,-14.026133,-2.6777816
1421715051907.00,1.4693445,-16.834143,-0.8345146
1421715051928.00,1.4582676,-12.890444,1.5637981
1421715051947.00,0.62674665,-11.515404,3.6688704
1421715051967.00,0.8596623,-11.886931,2.8672874
1421715051987.00,1.8218614,-12.584929,0.17244141
1421715052007.00,2.2773643,-12.806619,-0.94812834
1421715052027.00,1.0939251,-11.143577,-0.2811154
1421715052047.00,-0.50490004,-9.502839,0.37661684
1421715052067.00,-1.0630893,-8.409812,0.8614586
1421715052087.00,-0.63617706,-7.828271,0.44756928
1421715052107.00,0.15073654,-8.10759,-0.6979985
1421715052128.00,0.7759863,-8.668624,-1.5009288
1421715052147.00,1.2371773,-8.744965,-1.3633648
1421715052220.00,1.7375866,-8.520731,-1.474883
1421715052221.00,2.386637,-8.2566805,-2.2659879
1421715052222.00,2.6984386,-7.6140666,-2.8485763
1421715052232.00,2.4349864,-7.955207,-3.1263986
1421715052247.00,1.9035915,-8.52133,-3.273393
1421715052267.00,1.712439,-8.465047,-3.3712893
1421715052286.00,1.285377,-7.619755,-1.2470567
1421715052310.00,0.5427713,-6.9307375,0.37586838
1421715052327.00,1.3183086,-7.7116637,-0.94932586
1421715052347.00,2.689158,-9.793834,-3.4917889
1421715052368.00,0.57794815,-9.719139,0.3463797
1421715052387.00,-0.87747526,-8.163723,0.95755875
1421715052407.00,0.122145995,-7.177724,0.7738907
1421715052428.00,1.5084132,-7.765252,-0.010478211
1421715052450.00,2.0814216,-9.700877,-0.24414231
1421715052467.00,2.5932074,-9.512419,-0.50265473
1421715052487.00,2.1011806,-8.456664,-1.2121793
1421715052554.00,1.5664924,-8.491542,-1.4542259
1421715052555.00,0.8734337,-9.154663,-0.8080197
1421715052557.00,0.7515871,-9.453292,0.63647646
1421715052571.00,2.0814216,-11.457923,-2.8199859
1421715052587.00,4.2324486,-17.390835,-6.8020053
1421715052607.00,2.7268794,-19.283201,-8.073312
1421715052628.00,0.7206015,-18.034348,-5.725893
1421715052647.00,-0.3820056,-13.877342,-3.8450541
1421715052667.00,0.032332763,-11.158246,-2.4604335
1421715052687.00,0.22752686,-9.573941,-2.1050725
1421715052707.00,-1.2576846,-8.445887,-2.4155269
1421715052727.00,-0.9963281,-7.9703255,-2.82283
1421715052749.00,-0.55010605,-8.308023,-2.9642859
1421715052767.00,-0.081580356,-8.433762,-2.3004162
1421715052788.00,-0.26839188,-7.2149963,-1.355132
1421715052843.00,-0.70772827,-5.5619836,-0.8631052
1421715052844.00,-1.8125807,-4.1676335,-1.1383827
1421715052854.00,-2.5346792,-4.396208,-1.6679814
1421715052867.00,-2.3697221,-5.395081,-2.1628523
1421715052889.00,-1.9853215,-6.3224025,-2.2719755
1421715052907.00,-1.8949095,-6.6032186,-2.020199
1421715052927.00,-1.5712825,-6.5384035,-1.4322217
1421715052947.00,-0.7200028,-6.766529,-0.99198717
1421715052967.00,0.32452515,-7.3676786,-0.9783655
1421715052987.00,1.6637901,-8.251591,-1.4874568
1421715053010.00,3.171904,-9.271271,-2.6993368
1421715053027.00,3.658093,-10.7347765,-2.8740234
1421715053047.00,2.777624,-10.650652,-2.737657
1421715053070.00,1.3175601,-9.735455,-3.570076
1421715053087.00,1.165626,-9.664502,-4.603976
1421715053107.00,0.68662214,-10.036329,-5.425617
1421715053127.00,0.30222154,-9.719738,-4.5794272
1421715053243.00,0.18351837,-9.491912,-3.6220179
1421715053245.00,0.023650818,-9.921219,-3.690725
1421715053246.00,0.16705261,-9.8888855,-3.4618511
1421715053248.00,0.17558487,-8.860225,-2.9307554
1421715053250.00,0.26195526,-7.6082287,-2.7984307
1421715053251.00,0.65623534,-6.8144293,-2.6065297
1421715053269.00,0.5999524,-6.478079,-2.3191273
1421715053288.00,0.60174865,-6.1733127,-2.5138724
1421715053314.00,2.0353174,-6.852151,-4.1598496
1421715053327.00,3.596571,-9.038804,-0.5507048
1421715053350.00,1.551374,-11.819272,4.0676413
1421715053368.00,0.21061203,-16.748072,-1.4700929
1421715053387.00,4.160598,-19.195782,-15.034585
1421715053407.00,-1.337319,-14.726676,2.5012984
1421715053427.00,-3.8107755,-9.7305155,6.1415787
1421715053447.00,-2.4771986,-9.473799,7.3572006
1421715053467.00,-0.71221894,-12.756023,4.9532
1421715053534.00,0.75562865,-13.36855,-0.80652285
1421715053534.00,4.918173,-13.524825,-2.566862
1421715053535.00,5.096302,-11.365715,-2.1647983
1421715053547.00,0.5054988,-9.107361,-0.52510804
1421715053570.00,-2.0972886,-7.9649367,0.07514374
1421715053588.00,-2.2722747,-7.7905493,0.43185195
1421715053607.00,-1.6795075,-7.8252773,-0.11391312
1421715053627.00,0.27812165,-7.8194394,-1.4929953
1421715053650.00,1.8640736,-8.797505,-2.753075
1421715053667.00,2.2820046,-9.437275,-3.4449363
1421715053687.00,1.9962487,-9.154513,-1.8758991
1421715053707.00,2.0707939,-8.418194,-1.0026151
1421715053738.00,2.3340962,-8.268954,-1.8600321
1421715053747.00,2.5906627,-8.389753,-3.0400283
1421715053767.00,2.2263203,-8.962612,-3.1205606
1421715053788.00,1.647474,-8.876092,-2.5939558
1421715053859.00,1.3976436,-8.610694,-1.3898598
1421715053860.00,1.397943,-7.469617,0.85846484
1421715053861.00,0.63872176,-7.04495,0.85142946
1421715053870.00,0.89334226,-8.636889,-1.3708493
1421715053887.00,2.035168,-10.037377,-2.8580067
1421715053913.00,1.6102016,-8.765472,-1.8600321
1421715053927.00,0.32452515,-7.6428065,-0.893492
1421715053953.00,-0.522713,-7.2895412,0.23111938
1421715053975.00,0.48918274,-8.225695,-0.3213817
1421715053988.00,1.977388,-9.309441,-2.1128564
1421715054007.00,1.4985337,-8.8774395,-0.9608519
1421715054027.00,0.8017328,-8.932824,-0.3305127
1421715054048.00,1.2479548,-8.692873,-0.5071454
1421715054067.00,2.246229,-8.526569,-0.7873627
1421715054088.00,2.0329225,-9.138347,0.11226654
1421715054161.00,1.7441729,-10.632689,-0.95441526
1421715054161.00,1.5751745,-12.489877,-2.1341121
1421715054162.00,1.5115567,-15.5745125,-3.2855177
1421715054173.00,0.2549199,-18.296452,-7.2706804
1421715054187.00,-0.4867877,-17.637672,-7.262298
1421715054207.00,-0.85532135,-14.986685,-4.8130913
1421715054227.00,-0.07544312,-11.78619,-2.4273522
1421715054247.00,0.80307996,-10.015822,-1.4867084
1421715054267.00,0.17423767,-8.553363,-1.2525952
1421715054287.00,-0.9333092,-8.020022,-1.8872753
1421715054307.00,-0.13861175,-8.584648,-2.73137
1421715054327.00,0.64036834,-8.580157,-2.787204
1421715054348.00,0.20342697,-7.5275464,-2.0992346
1421715054367.00,-0.7955955,-6.3152175,-1.7209712
1421715054388.00,-1.4447955,-5.5601873,-1.9613713
1421715054408.00,-1.7200731,-5.5973105,-1.9193088
1421715054427.00,-1.389261,-6.332282,-2.3686743
1421715054488.00,-0.9273216,-7.3009176,-2.9699738
1421715054489.00,-0.7327263,-7.209458,-3.077151
1421715054491.00,-1.1177257,-6.4316754,-2.4132814
1421715054510.00,-1.0587484,-5.99668,-1.2370276
1421715054539.00,-0.55923706,-6.1569963,-0.81131285
1421715054547.00,0.42481658,-6.9534903,-0.9909393
1421715054567.00,1.4362633,-7.5778418,-1.475332
1421715054587.00,2.6981392,-8.392298,-1.8061441
1421715054607.00,3.5271153,-9.047485,-2.347119
1421715054627.00,3.9863603,-8.973689,-2.4956102
1421715054647.00,3.6338434,-8.830437,-2.0604653
1421715054667.00,2.4369323,-9.340876,-2.7830126
1421715054687.00,0.9824071,-10.291998,-2.99587
1421715054707.00,-0.011526031,-10.674453,-3.0630803
1421715054727.00,0.060623933,-11.161091,-6.8329906
1421715054747.00,0.6450087,-10.81531,-6.775211
1421715054803.00,0.31120285,-9.937684,-5.2403026
1421715054804.00,0.34218842,-8.442444,-2.681823
1421715054807.00,-0.16420853,-7.0757856,-1.2539424
1421715054831.00,-0.45011398,-6.509064,-0.5650749
1421715054847.00,-0.6315367,-7.2625976,-0.29892838
1421715054867.00,-0.44128236,-7.4543486,-0.98480207
1421715054887.00,0.6173163,-8.133785,-3.29884
1421715054910.00,1.8995498,-10.51189,-5.2855086
1421715054927.00,1.5887961,-12.529096,-4.4363246
1421715054948.00,0.9475296,-12.847034,-0.1459465
1421715054967.00,0.6192622,-12.778626,0.7152127
1421715054987.00,3.0243108,-14.689104,-5.562433
1421715055007.00,1.056952,-16.574432,-5.989944
1421715055027.00,-2.1661456,-11.615994,1.9128722
1421715055047.00,-1.2963043,-9.320068,5.3597546
1421715055068.00,0.44173142,-11.720777,5.3774176
1421715055143.00,1.160836,-12.270733,2.3793023
1421715055144.00,2.4207659,-12.152329,-0.44218048
1421715055145.00,3.4952316,-12.014317,-0.68946624
1421715055154.00,1.2617263,-10.777139,-0.53648436
1421715055168.00,-0.7234456,-9.06455,0.01407074
1421715055187.00,-0.8494835,-8.393046,0.13382171
1421715055207.00,-0.357307,-8.416997,-0.44906616
1421715055228.00,0.1287323,-8.3852625,-0.9267229
1421715055247.00,0.6274951,-8.343201,-1.1102413
1421715055267.00,1.4483881,-8.635542,-1.3474978
1421715055290.00,2.24099,-8.6015625,-1.669628
1421715055307.00,2.880011,-8.460706,-2.1354592
1421715055328.00,3.0055997,-8.900791,-2.6664052
1421715055349.00,2.1640499,-8.644524,-2.0763323
1421715055367.00,1.1317964,-8.549171,-1.8115329
1421715055389.00,0.5803432,-8.882678,-1.8242564
1421715055471.00,0.9681866,-9.135952,-1.7744101
1421715055472.00,1.7318985,-8.098609,-2.1113594
1421715055472.00,1.9324814,-7.46333,-2.1513262
1421715055473.00,0.6794371,-7.931257,-0.62031007
1421715055487.00,1.181044,-8.738079,-1.2862751
1421715055507.00,1.9541862,-8.643625,-1.0472223
1421715055527.00,1.7573456,-8.562794,-0.15732284
1421715055547.00,0.86100954,-8.216863,0.86579955
1421715055567.00,0.09310638,-7.9573026,0.63932055
1421715055587.00,0.6143225,-8.680598,0.26719436
1421715055607.00,1.814826,-10.312954,-1.6619939
1421715055628.00,1.5027251,-10.023457,-0.9412427
1421715055647.00,0.77987826,-9.219927,-0.21525238
1421715055667.00,0.80996567,-9.001232,-0.41703278
1421715055687.00,1.0485694,-9.089698,-0.8092172
1421715055711.00,1.4085709,-10.065219,-1.4519806
1421715055728.00,2.27467,-12.287797,-2.2951772
1421715056041.00,2.0823197,-12.723242,-1.8178198
1421715056043.00,1.2826827,-14.0057745,-3.4230816
1421715056048.00,0.36119887,-15.47467,-5.2471886
1421715056052.00,-0.09235794,-14.776971,-5.841153
1421715056053.00,-0.7370673,-13.41675,-5.529651
1421715056054.00,-0.66940796,-11.363171,-3.811524
1421715056055.00,-0.8864566,-9.675729,-1.5608042
1421715056057.00,-1.3307327,-8.073462,-1.3674065
1421715056058.00,-1.2445121,-8.38646,-1.9275416
1421715056059.00,-0.6994954,-9.985885,-3.4179924
1421715056060.00,-0.37077895,-10.345885,-3.3371603
1421715056061.00,-0.24773483,-9.346713,-2.700534
1421715056062.00,-0.60683805,-7.976313,-2.2079086
1421715056065.00,-1.4831158,-7.513625,-2.828069
1421715056097.00,-1.213227,-7.524403,-2.6614654
1421715056098.00,-0.8560698,-6.668483,-2.3772066
1421715056154.00,-0.64411056,-6.4032345,-1.838926
1421715056155.00,-0.62225604,-6.313571,-1.4876065
1421715056156.00,-0.46164,-6.2607307,-0.9635463
1421715056167.00,0.20911515,-6.1122394,-1.2775933
1421715056187.00,0.52630556,-6.2295957,-1.9386187
1421715056207.00,0.57540345,-6.5728316,-2.6435027
1421715056227.00,1.1476635,-6.6368985,-3.0192215
1421715056247.00,2.079326,-7.244485,-2.2782624
1421715056267.00,2.9999115,-8.826994,-1.1752062
1421715056287.00,2.5960515,-10.412647,-1.2211605
1421715056310.00,1.8820363,-10.338551,-2.2194347
1421715056329.00,1.90913,-9.712703,-3.2904575
1421715056349.00,1.583557,-9.50239,-3.7175193
1421715056367.00,1.1636801,-9.863738,-3.6080968
1421715056477.00,0.28710297,-9.518556,-3.2189062
1421715056478.00,-0.35491195,-9.061108,-3.1626234
1421715056479.00,-0.37856278,-8.278834,-2.6273365
1421715056479.00,0.054486696,-8.010741,-2.0231926
1421715056480.00,0.43709105,-8.219558,-1.3982424
1421715056487.00,0.37302428,-9.128318,-1.280587
1421715056507.00,0.5403763,-9.31453,-1.7248632
1421715056527.00,0.6746471,-8.720266,-2.7235863
1421715056547.00,1.009351,-9.046886,-4.564159
1421715056567.00,1.8461109,-9.89188,-4.625681
1421715056587.00,2.0395088,-11.039992,-2.0675006
1421715056607.00,0.7123686,-12.452305,0.4233197
1421715056627.00,0.57106245,-12.352463,0.355361
1421715056647.00,0.2974315,-13.331278,-1.4066249
1421715056667.00,0.14879058,-17.350868,-6.0156903
1421715056687.00,-0.09894425,-12.328513,0.13022919
1421715056781.00,-0.13022919,-10.495275,4.4104285
1421715056782.00,1.3468992,-11.368858,3.1626234
1421715056782.00,2.722838,-11.880494,1.257535
1421715056783.00,2.3634353,-11.770623,-0.041463777
1421715056792.00,1.4459931,-11.462863,-0.1911525
1421715056807.00,0.35940263,-10.264605,-0.30626312
1421715056827.00,-0.5545967,-8.974587,-0.6402187
1421715056847.00,-0.8560698,-8.241712,-1.3983921
1421715056867.00,-0.81535447,-7.7980337,-1.5352075
1421715056887.00,-0.17304017,-7.198381,-1.5200889
1421715056911.00,0.55699176,-6.6542625,-1.2760963
1421715056930.00,1.3645624,-7.647447,-2.465523
1421715056950.00,2.4789948,-8.944949,-4.1185355
1421715056968.00,2.5038433,-7.4265065,-3.2331266
1421715056987.00,0.8795709,-6.1132874,-1.0285112
1421715057007.00,0.68153274,-6.4223948,-1.1744577
1421715057028.00,2.1320164,-8.572972,-0.94708055
1421715057047.00,2.277514,-8.595126,-0.72045183
1421715057158.00,1.8074913,-8.119864,-0.35057098
1421715057160.00,1.0909314,-7.841144,1.6660354
1421715057163.00,1.5247293,-8.409363,0.655936
1421715057167.00,1.9094293,-10.217603,-0.15193406
1421715057169.00,0.6471043,-9.763896,0.26060808
1421715057171.00,1.7609382,-9.786649,-1.041085
1421715057190.00,2.776576,-11.0564575,-2.715054
1421715057207.00,2.4845333,-12.834161,-4.800667
1421715057228.00,1.1892769,-15.701598,-5.1522856
1421715057248.00,-0.08846603,-18.935474,-6.2361817
1421715057267.00,-2.0007393,-18.354082,-5.8924966
1421715057288.00,-2.9809012,-15.627502,-2.9080029
1421715057308.00,-2.0621119,-12.378359,0.14624588
1421715057337.00,-1.11084,-10.1224,-1.1653267
1421715057351.00,-1.1115885,-9.1853485,-2.9147387
1421715057438.00,-1.2979509,-9.038055,-2.4519012
1421715057439.00,-1.5887961,-8.196655,-2.206711
1421715057440.00,-1.556613,-7.0615654,-1.388812
1421715057440.00,-1.3630655,-6.3683567,-0.572709
1421715057449.00,-1.5552658,-5.7333775,-0.33500335
1421715057468.00,-2.4613316,-5.484445,-0.48005173
1421715057488.00,-3.0943651,-5.9902434,-0.8861572
1421715057507.00,-3.2696507,-6.739435,-1.2409195
1421715057528.00,-2.9422815,-7.1417985,-1.5428417
1421715057547.00,-2.619403,-6.9216065,-1.6229252
1421715057567.00,-1.4781761,-7.8803625,-3.340603
1421715057588.00,0.43813887,-9.026679,-5.4458256
1421715057607.00,1.6229252,-10.0908165,-6.741381
1421715057628.00,2.5439599,-10.974728,-7.6574764
1421715057648.00,2.8993208,-10.994487,-7.1447926
1421715057668.00,3.7209623,-9.962234,-6.4167066
1421715057687.00,3.8649628,-9.211544,-5.3530183
1421715057819.00,2.478546,-8.77146,-3.834576
1421715057823.00,0.816552,-8.466694,-2.7566674
1421715057828.00,-0.56193143,-9.016051,-2.9255164
1421715057829.00,-0.12528946,-11.949202,-5.6784415
1421715057830.00,-0.97731763,-16.375347,-4.988826
1421715057831.00,-0.82897615,-14.937886,-5.096302
1421715057832.00,-2.8114536,-8.28048,-0.5278024
1421715057850.00,-6.0285635,-4.5584707,3.5423837
1421715057870.00,-6.802155,-4.253555,2.7608588
1421715057887.00,-4.9296985,-6.5749273,2.4258554
1421715057908.00,-1.3876145,-11.530822,3.8478982
1421715057927.00,3.6103423,-14.797179,1.1475137
1421715057947.00,6.1237655,-11.816876,-0.79065585
1421715057968.00,3.2087274,-8.960217,0.23695725
1421715057988.00,-0.11301498,-8.989107,1.2142749
1421715058009.00,-1.7266594,-9.738299,1.0708731
1421715058028.00,-1.3139676,-10.105636,-0.21525238
1421715058240.00,-0.6734496,-10.227781,-1.0419831
1421715058241.00,-0.65488815,-9.638307,-0.2695894
1421715058242.00,-0.7788304,-9.508227,1.5404466
1421715058243.00,-0.7316785,-9.202414,2.2200334
1421715058244.00,-0.21240829,-8.967402,2.1713846
1421715058247.00,0.27138564,-9.393866,1.757196
1421715058248.00,0.45176056,-9.676627,1.5380516
1421715058253.00,0.46942383,-9.79099,1.454675
1421715058254.00,0.45789778,-9.449999,1.5651453
1421715058255.00,0.81984514,-9.027877,1.9969972
1421715058256.00,1.2518468,-9.47829,2.2656884
1421715058271.00,1.9661614,-9.794433,2.3191273
1421715058288.00,2.400558,-9.623487,1.6375946
1421715058308.00,2.4695644,-9.394015,1.119522
1421715058328.00,2.2954764,-9.144633,1.1114388
1421715058553.00,2.0276835,-9.097781,1.1672727
1421715058555.00,1.9642154,-9.5351715,1.0467732
1421715058557.00,2.1406984,-10.090068,0.82328796
1421715058558.00,1.988465,-10.2911,-0.12708573
1421715058559.00,1.8185682,-10.178683,-1.44749
1421715058559.00,1.1144326,-10.086625,-1.2112812
1421715058560.00,0.8782237,-9.876612,-0.33081207
1421715058561.00,0.7445517,-9.881252,0.006735993
1421715058565.00,0.59755737,-10.595118,-0.10987152
1421715058566.00,1.1997551,-12.720847,-1.9133213
1421715058567.00,1.8209633,-14.383888,-2.2278173
1421715058568.00,-0.19459534,-13.451179,-0.531844
1421715058588.00,-2.1851559,-11.497741,-0.54890853
1421715058610.00,-3.0302985,-10.95452,-1.1991563
1421715058627.00,-3.0626311,-10.7957,-0.83825684
1421715058647.00,-3.5025663,-10.223141,0.32706985
1421715058668.00,-4.096681,-9.972262,1.3217514
1421715058740.00,-4.6008325,-9.900112,1.6741186
1421715058741.00,-4.8672786,-10.090367,1.3590239
1421715058742.00,-3.424878,-10.455458,2.239942
1421715058752.00,-1.1662248,-10.494976,-1.3856685
1421715058768.00,0.60294616,-9.970616,0.122445375
1421715058788.00,1.3780344,-9.201066,-0.0291893
1421715058808.00,0.744402,-8.274942,0.49352372
1421715058827.00,0.5548961,-8.131091,0.98944247
1421715058847.00,0.18935624,-7.6953473,0.565524
1421715058868.00,0.31928605,-7.461384,-0.25686586
1421715058888.00,0.28066635,-6.895411,-0.7271878
1421715058907.00,-0.33096176,-6.4253883,-0.7509883
1421715058927.00,-1.0415341,-6.3909597,-0.29638368
1421715058950.00,-0.87268525,-6.580316,-0.5598358
1421715058969.00,-0.79739183,-6.8526,-0.8370593
1421715058989.00,-0.3912863,-7.603588,-1.1606864
1421715059073.00,0.8789722,-8.576415,-2.5909622
1421715059074.00,2.513124,-10.250684,-5.9903927
1421715059075.00,3.499872,-11.701766,-8.097561
1421715059076.00,3.7992494,-11.632011,-7.7775264
1421715059088.00,3.8270915,-11.150312,-5.4043617
1421715059108.00,2.7446923,-10.0786915,-2.452949
1421715059128.00,0.7643106,-8.687485,-1.3636643
1421715059149.00,-0.9672885,-8.006999,-1.6203804
1421715059174.00,-2.9421318,-10.011182,-1.1033555
1421715059188.00,-5.0183144,-15.360907,-1.400787
1421715059207.00,-4.737049,-16.698376,-4.7566586
1421715059227.00,-2.2366488,-9.479487,-2.9053085
1421715059247.00,-3.437302,-5.955665,1.8074913
1421715059267.00,-3.9624102,-5.119504,3.806285
1421715059287.00,-3.0262568,-7.371271,5.3133507
1421715059308.00,-1.2304413,-10.159074,5.6841297
1421715059330.00,0.74110883,-12.484189,4.421805
1421715059393.00,3.2124696,-11.836486,-1.6612455
1421715059393.00,4.1848474,-10.213262,-3.5573525
1421715059394.00,0.900677,-9.345965,-0.28949797
1421715059409.00,-1.2066407,-9.640702,1.5658937
1421715059428.00,-1.6265177,-9.821227,0.86475176
1421715059447.00,-0.6117778,-9.881252,-0.49382308
1421715059467.00,-0.14684464,-9.701326,0.10103989
1421715059488.00,-0.1830693,-9.2046585,1.2868739
1421715059508.00,-0.026045837,-9.220376,1.6572038
1421715059528.00,0.45191026,-9.366921,2.0065773
1421715059548.00,0.9247769,-9.58906,1.9965482
1421715059568.00,0.89543796,-9.6830635,1.3016931
1421715059587.00,0.57106245,-9.495804,0.89244413
1421715059608.00,0.33410522,-9.481583,0.8631052
1421715059627.00,0.085621946,-9.693692,0.5369334
1421715059648.00,0.11885285,-9.797576,0.23875351
1421715059725.00,0.09565109,-9.621692,0.13950989
1421715059726.00,0.1951941,-9.617351,0.09460327
1421715059726.00,0.778531,-9.61256,0.42032593
1421715059727.00,1.0024654,-9.396709,0.2694397
1421715059747.00,0.95187056,-9.795181,0.04565506
1421715059767.00,0.3465294,-9.820029,0.11555969
1421715059787.00,0.045954436,-9.725126,0.32811767
1421715059822.00,0.2890489,-9.459878,0.35640883
1421715059833.00,0.6703061,-9.508227,0.26180556
1421715059848.00,1.0066566,-9.7112055,0.20492385
1421715059867.00,1.2825329,-10.082284,0.28964767
1421715059887.00,0.9440868,-10.931019,0.67734146
1421715059910.00,0.58618104,-11.960728,0.7020401
1421715059929.00,-0.07768845,-12.594061,0.04685257
1421715059949.00,-0.9038205,-11.711346,-0.16959733
1421715059972.00,-1.0458751,-10.62745,-1.0183324
1421715060050.00,-1.334924,-9.782008,-2.3900797
1421715060051.00,-0.93884766,-9.775572,-2.413581
1421715060051.00,-1.0288106,-10.322085,-1.4147081
1421715060062.00,-1.2198133,-11.1899805,-2.1061203
1421715060082.00,-2.5399182,-11.6948805,-1.7883312
1421715060088.00,-3.6284547,-11.2269535,-0.23082
1421715060108.00,-2.9696746,-10.504556,2.8515701
1421715060128.00,-1.7928218,-10.0025,4.67882
1421715060148.00,-1.6200811,-9.890383,0.6601273
1421715060168.00,-1.069975,-10.451416,-3.131488
1421715060187.00,-0.6821315,-10.115814,-2.5349784
1421715060208.00,-0.62734544,-9.166339,-1.4919475
1421715060227.00,-0.98480207,-7.711813,-0.7975415
1421715060250.00,-1.3401631,-6.718928,-0.62824357
1421715060270.00,-1.1677217,-6.056705,-0.91744214
1421715060291.00,-1.0470726,-6.23708,-0.9463321
1421715060309.00,-0.8452922,-6.094277,-0.9675879
1421715060392.00,-0.5867798,-5.7721467,-0.9342073
1421715060393.00,-0.20237915,-5.64566,-0.8744815
1421715060394.00,0.03517685,-5.4655843,-0.7113208
1421715060395.00,0.2722838,-5.2227893,-0.4367917
1421715060407.00,0.73078036,-5.5312977,-1.1750565
1421715060428.00,1.7304016,-5.929769,-2.2743704
1421715060447.00,2.6946964,-6.9840264,-3.1301408
1421715060468.00,3.424429,-9.181158,-3.840264
1421715060490.00,3.2596216,-10.5780525,-3.8495448
1421715060508.00,1.9609222,-10.983709,-3.8146675
1421715060528.00,0.14145584,-11.029514,-4.301006
1421715060548.00,0.57225996,-10.6117325,-4.702621
1421715060568.00,0.6611751,-10.485845,-4.498745
1421715060588.00,0.09789643,-10.114916,-4.063899
1421715060608.00,-1.0205777,-9.065449,-4.128864
1421715060628.00,-1.9112256,-8.297695,-3.1539414
1421715060683.00,-1.9037411,-8.099657,-0.6396199
1421715060684.00,-2.0469933,-7.6679544,-0.7921527
1421715060699.00,-1.8268012,-7.3049593,-1.4952407
1421715060716.00,-1.7218693,-7.5178165,-1.7642312
1421715060728.00,-0.64186525,-9.394913,-1.8622774
1421715060748.00,-0.082478486,-13.419444,-2.456841
1421715060768.00,0.33066237,-15.450121,-2.1366568
1421715060789.00,-0.021555176,-14.354699,-2.2209315
1421715060808.00,0.010029145,-14.396762,-1.4835649
1421715060828.00,-1.0350975,-16.651373,-2.8928843
1421715060849.00,-0.7297325,-11.680211,0.09565109
1421715060868.00,0.69889665,-8.584798,5.768105
1421715060888.00,1.909579,-9.062754,5.6173687
1421715060910.00,2.3420298,-10.538385,3.1883698
1421715060932.00,1.9923569,-11.85355,0.81670165
1421715060948.00,2.3219714,-11.329491,-1.4801221
1421715061016.00,0.22138962,-10.113419,-2.6661057
1421715061017.00,-1.5452367,-8.561596,-0.6825806
1421715061018.00,-0.98450273,-7.8097095,1.4694942
1421715061028.00,-0.16360977,-8.108788,1.2702584
1421715061048.00,0.9147478,-9.601933,-0.73078036
1421715061068.00,1.3495935,-9.967772,-1.9612216
1421715061088.00,1.2490027,-9.530531,-1.1802956
1421715061108.00,1.4715898,-8.826096,-0.1393602
1421715061136.00,2.0198996,-8.270452,-0.9045689
1421715061148.00,2.12064,-9.046738,-2.1207898
1421715061168.00,1.0095007,-10.291698,-1.923051
1421715061191.00,0.65997756,-9.7586565,-1.1692185
1421715061208.00,1.1524534,-8.343948,-0.55669236
1421715061228.00,1.1337423,-6.9942055,-0.1552272
1421715061247.00,1.8372793,-8.41535,-2.804418
1421715061268.00,2.344874,-9.974059,-5.4977674
1421715061335.00,-0.07798782,-8.896899,-0.02679428
1421715061336.00,-1.5151492,-7.870932,2.164948
1421715061336.00,-0.963696,-7.194489,0.50579816
1421715061348.00,0.9086105,-8.924741,-2.721341
1421715061368.00,2.2626946,-9.795181,-1.4186
1421715061388.00,1.5242802,-8.962013,0.37197646
1421715061408.00,0.90531737,-8.132738,-0.68557435
1421715061428.00,0.21106109,-7.510332,0.80906755
1421715061448.00,0.3662883,-7.2852,2.1148024
1421715061469.00,1.9646645,-10.233021,-2.284699
1421715061488.00,2.854564,-10.908116,-3.7643719
1421715061508.00,0.8292755,-8.421338,0.10927276
1421715061529.00,0.7433542,-6.9729495,0.68781966
1421715061549.00,1.4895525,-7.274722,-0.5269043
1421715061569.00,1.6860938,-12.107573,-4.012556
1421715061588.00,1.9007474,-14.128071,-5.1465974
1421715061642.00,3.7425175,-13.600867,-4.447102
1421715061643.00,4.4771895,-17.60534,-5.667215
1421715061653.00,1.6202307,-17.766705,-6.0348506
1421715061668.00,-1.1865824,-14.255755,-4.4732976
1421715061689.00,-1.3980926,-11.488909,-2.189946
1421715061708.00,-1.7293538,-9.41587,-0.20806733
1421715061729.00,-2.1911435,-8.529413,-0.1910028
1421715061749.00,-2.6806257,-7.811955,-2.5951533
1421715061769.00,-1.321003,-8.957972,-3.4813106
1421715061790.00,-0.63812304,-9.041049,-2.2204826
1421715061808.00,-0.6593788,-7.7390566,-0.79799056
1421715061828.00,-1.0759625,-6.010751,-0.9357042
1421715061848.00,-1.7386345,-5.0368757,-1.3251942
1421715061869.00,-2.595752,-4.993466,-1.8169217
1421715061889.00,-2.6249413,-5.6794896,-1.6973205
1421715061908.00,-2.4786956,-6.22241,-1.5167958
1421715061976.00,-2.3355932,-6.7223706,-1.5528708
1421715061976.00,-1.9809805,-7.026239,-1.3379178
1421715061977.00,-0.6119275,-7.5631723,-0.8728349
1421715061988.00,0.66431856,-8.08843,-1.0310559
1421715062008.00,2.238445,-9.635163,-2.3837929
1421715062029.00,3.3799713,-11.071726,-2.7234366
1421715062048.00,2.6970913,-10.947933,-3.4673896
1421715062068.00,1.869163,-9.870474,-3.5173855
1421715062088.00,1.8916163,-9.429341,-3.6206708
1421715062108.00,1.6501684,-9.562565,-3.629652
1421715062129.00,0.5947133,-9.940529,-3.2886612
1421715062148.00,-0.20911515,-9.774524,-3.0916708
1421715062168.00,-0.032931518,-8.863817,-3.6923716
1421715062188.00,0.78496766,-8.13154,-3.3491354
1421715062208.00,0.778531,-8.639883,-2.3511608
1421715062228.00,-0.18546432,-8.491093,-1.9993923
1421715062249.00,-0.68587375,-7.982151,-1.3296849
1421715062309.00,-0.47047165,-7.294032,-0.9761202
1421715062310.00,0.59276736,-6.8162255,-1.5371535
1421715062311.00,1.72157,-6.9005003,-2.6110203
1421715062400.00,1.664838,-8.615933,-2.8889923
1421715062401.00,1.1665242,-10.374926,-4.2195754
1421715062401.00,0.17244141,-11.765084,-1.4807209
1421715062402.00,-1.4244379,-12.864099,1.4157559
1421715062416.00,0.07274872,-14.905105,-1.5295193
1421715062437.00,1.6748672,-18.857485,-8.443342
1421715062448.00,1.463357,-16.46561,-0.7620653
1421715062477.00,-0.48334488,-10.085577,6.1436744
1421715062488.00,0.29159364,-9.475595,6.676566
1421715062536.00,1.9076331,-11.482023,3.567681
1421715062537.00,2.2511687,-12.442426,0.1445993
1421715062548.00,2.554887,-12.578493,-0.86071014
1421715062568.00,1.5136523,-10.668165,-1.2445121
1421715062592.00,-0.67329985,-9.02638,-0.44891647
1421715062663.00,-1.5269747,-7.944729,-0.013022918
1421715062664.00,-1.1936178,-7.9823008,-0.29548553
1421715062666.00,-0.2920427,-8.137827,-0.26539811
1421715062677.00,0.49801436,-8.450228,0.3571573
1421715062688.00,0.8310718,-8.900791,-0.6500981
1421715062708.00,1.3997393,-9.287287,-2.625091
1421715062728.00,1.8781444,-9.497899,-3.73159
1421715062748.00,1.5554155,-9.028924,-2.8273206
1421715062768.00,1.0090517,-8.381969,-1.9859203
1421715062788.00,0.79230237,-7.5398207,-1.6458275
1421715062808.00,0.6611751,-6.572233,-0.98195803
1421715062829.00,0.6277945,-8.586295,-1.0720706
1421715062849.00,1.9823277,-9.963581,-2.9032128
1421715062870.00,2.6232948,-8.740923,-2.0230432
1421715062891.00,1.1746074,-7.481592,0.11915222
1421715062908.00,0.33664992,-7.8953314,0.19025436
1421715062973.00,0.5110373,-9.502989,-1.624871
1421715062973.00,1.0894345,-8.864865,-1.7956659
1421715062974.00,0.5939648,-8.455018,-0.6730005
1421715062988.00,0.46403503,-8.561895,-0.56851774
1421715063008.00,0.065264285,-7.9617934,0.14968872
1421715063028.00,0.6345305,-8.921747,-0.8997789
1421715063049.00,1.6202307,-9.779913,-1.8257533
1421715063068.00,1.8050963,-10.056538,-1.0779085
1421715063088.00,1.7570462,-9.336385,-0.15702347
1421715063109.00,2.158212,-9.925859,-1.7925224
1421715063128.00,1.9540366,-9.577085,-1.2427157
1421715063148.00,1.393602,-9.974359,-2.3917265
1421715063169.00,1.7236656,-14.002481,-4.3239083
1421715063188.00,0.8427475,-16.843424,-5.5540504
1421715063208.00,-1.1121871,-18.108444,-6.060447
1421715063228.00,-1.8125807,-15.559094,-3.9178028
1421715063292.00,-1.432072,-12.446318,-3.2159126
1421715063294.00,-0.63468015,-10.071207,-2.0059786
1421715063296.00,-1.1240126,-9.652528,-1.6839981
1421715063308.00,-1.3515395,-9.718241,-2.012565
1421715063328.00,-1.2783417,-9.368419,-2.6536818
1421715063348.00,-0.95366687,-8.165071,-3.0615835
1421715063368.00,-0.8400531,-7.3765106,-2.6002429
1421715063388.00,-1.0391392,-6.406827,-2.1998255
1421715063408.00,-1.6483722,-5.3082614,-1.4142591
1421715063428.00,-2.2050645,-5.20797,-1.2563374
1421715063448.00,-2.381398,-5.8377104,-1.4675483
1421715063468.00,-2.5228536,-6.5910935,-2.1460872
1421715063489.00,-2.415078,-6.783444,-2.4824378
1421715063508.00,-1.9094293,-6.419101,-2.4610322
1421715063528.00,-1.1087444,-6.4734383,-2.567461
1421715063549.00,-0.104632415,-6.5994763,-2.2665865
1421715063598.00,1.045426,-6.8853817,-2.0854633
1421715063599.00,1.7950672,-7.247479,-2.0820205
1421715063608.00,2.348167,-7.839198,-2.106719
1421715063628.00,2.6388624,-8.250842,-3.000211
1421715063648.00,2.2725742,-9.432784,-3.201243
1421715063668.00,1.5459851,-9.813743,-3.533552
1421715063689.00,1.0397378,-9.321566,-3.7751496
1421715063709.00,0.52316207,-9.000034,-3.675906
1421715063728.00,0.42496628,-8.728948,-3.279081
1421715063748.00,0.29353958,-8.865015,-3.8074822
1421715063768.00,0.2945874,-9.390423,-4.3569894
1421715063788.00,0.12409195,-9.642648,-4.085903
1421715063808.00,0.07394623,-9.414971,-4.517606
1421715063828.00,-0.09999207,-7.9978685,-5.043911
1421715063848.00,-0.95695996,-7.1495824,-4.997807
1421715063869.00,-2.4186704,-8.253387,-6.1161313
1421715063943.00,-3.0802946,-10.761271,-6.3204565
1421715063944.00,-2.6979895,-12.150982,-0.7149133
1421715063946.00,-2.2728736,-11.627521,5.0252
1421715063956.00,-0.2243834,-14.952256,2.098636
1421715063968.00,5.675448,-18.95149,-12.213252
1421715063988.00,1.8324894,-13.189522,1.4521303
1421715064008.00,-1.7100439,-9.749077,6.8542466
1421715064028.00,-1.1644286,-10.528656,6.8826876
1421715064051.00,-0.016765136,-12.347972,3.431614
1421715064068.00,2.0061283,-12.476854,-1.1946657
1421715064088.00,4.6065207,-12.651541,-2.6798773
1421715064109.00,2.404899,-10.561138,-1.0280621
1421715064129.00,-0.4644841,-8.332722,0.6512956
1421715064148.00,-1.3130695,-7.448211,0.58902514
1421715064168.00,-0.3571573,-7.6239457,0.07289841
1421715064188.00,1.0571017,-8.690179,-0.97177917
1421715064211.00,2.0083735,-8.588989,-1.7022601
1421715064287.00,2.138004,-8.335417,-1.669628
1421715064288.00,2.5918603,-9.222771,-1.9264939
1421715064289.00,2.7033782,-9.292077,-3.006049
1421715064298.00,2.3248155,-8.75679,-3.2226484
1421715064319.00,1.6148419,-8.098908,-2.7951374
1421715064332.00,0.96264815,-7.6823244,-1.850452
1421715064349.00,1.0127939,-8.510552,-2.6662555
1421715064370.00,1.1558963,-9.138646,-1.5310162
1421715064392.00,0.7617659,-7.805668,0.35012192
1421715064408.00,1.2686119,-7.1995783,-1.5040723
1421715064428.00,1.9510428,-8.175848,-3.2852182
1421715064448.00,1.7911752,-9.543405,-2.2743704
1421715064470.00,0.85053134,-9.750125,0.23246658
1421715064489.00,0.45355684,-8.076455,0.58483386
1421715064509.00,0.5560936,-7.4408765,-0.61686724
1421715064528.00,0.96579164,-8.760233,-0.43289977
1421715064587.00,1.9112256,-10.637629,-1.2750485
1421715064588.00,1.518143,-10.071806,-0.739612
1421715064589.00,0.23291565,-8.597522,-0.6664142
1421715064608.00,0.47975236,-8.749455,-0.31808853
1421715064628.00,1.4262341,-9.861942,-0.82523394
1421715064648.00,2.393822,-10.978919,-1.6254698
1421715064668.00,1.4747332,-10.554103,-1.3256433
1421715064693.00,0.95187056,-10.114916,-0.3824547
1421715064721.00,1.5435901,-11.819422,-1.658551
1421715064729.00,1.9064355,-15.827337,-5.3721786
1421715064755.00,-0.37377274,-16.180752,-7.0802765
1421715064771.00,-1.7335451,-15.173945,-6.235583
1421715064791.00,-1.588347,-12.6234,-4.312532
1421715064810.00,-1.7378861,-10.318193,-2.1001327
1421715064831.00,-2.3345454,-8.423134,-0.8957373
1421715064906.00,-2.3733146,-7.6914554,-1.3204042
1421715064907.00,-1.027164,-9.501192,-3.1457086
1421715064908.00,0.3382965,-11.598182,-3.8785844
1421715064909.00,-0.008532257,-9.964029,-2.8349547
1421715064928.00,-1.0889854,-8.00221,-2.1088147
1421715064948.00,-1.8977536,-6.8979554,-1.8968555
1421715064968.00,-2.135609,-6.255342,-2.280807
1421715064988.00,-1.317111,-6.8629284,-2.9894335
1421715065013.00,-0.760269,-7.675439,-3.074756
1421715065031.00,-1.0437795,-7.6071806,-3.0262568
1421715065049.00,-1.5111077,-6.966064,-2.757865
1421715065069.00,-1.4036311,-6.3948517,-2.133663
1421715065091.00,-1.0442286,-6.291716,-1.9239491
1421715065111.00,-1.0368937,-6.474037,-2.0281324
1421715065129.00,-0.832419,-6.856791,-2.1637504
1421715065148.00,-0.3582051,-7.249724,-2.1862037
1421715065168.00,0.47690827,-7.3480697,-2.5008495
1421715065188.00,1.5280224,-7.445667,-2.328408
1421715065267.00,2.3571482,-7.7433977,-1.8035994
1421715065269.00,2.5825796,-8.033494,-1.8558408
1421715065270.00,2.2935305,-8.586893,-2.074087
1421715065271.00,2.0207977,-9.191636,-2.2915847
1421715065288.00,1.4518309,-9.177266,-2.9303064
1421715065308.00,1.0740166,-9.663305,-3.7259018
1421715065329.00,0.76535845,-10.7478,-4.798721
