time_milisec,ax,ay,az
1421715777570.00,-1.9902612,4.7662387,9.0325165
1421715777604.00,-1.9121237,4.908443,8.923543
1421715777615.00,-1.9766395,5.004244,8.725505
1421715777628.00,-1.8652711,5.0138235,8.5469265
1421715777651.00,-1.88024,4.9533496,8.432565
1421715777669.00,-1.6886384,4.906048,8.343799
1421715777688.00,-1.7488133,4.8859897,8.488548
1421715777708.00,-1.7368382,5.0150213,8.386311
1421715777728.00,-1.8784437,4.812642,8.584049
1421715777748.00,-1.6211288,4.7133985,8.945249
1421715777769.00,-1.5398479,4.7961764,8.785081
1421715777788.00,-1.6314573,4.8777566,8.474477
1421715777808.00,-1.6747174,4.992568,8.373437
1421715777828.00,-1.726809,4.947362,8.643476
1421715777848.00,-1.7673748,4.87626,8.821755
1421715777870.00,-1.869163,4.931345,8.974737
1421715777888.00,-1.8979033,5.0135245,8.827144
1421715777908.00,-1.7589922,4.945865,8.88642
1421715777928.00,-1.8232086,4.83285,8.760233
1421715777948.00,-1.886527,4.9422727,8.589139
1421715777968.00,-1.8910176,4.898114,8.633297
1421715777992.00,-1.7245637,4.9211664,8.605604
1421715778008.00,-1.7134868,4.797673,8.55007
1421715778028.00,-1.5331119,4.963678,8.707992
1421715778050.00,-1.719624,4.927902,8.580756
1421715778068.00,-1.7110918,4.9177237,8.455766
1421715778088.00,-1.5992743,4.8749127,8.579109
1421715778110.00,-1.6414865,4.9296985,8.563992
1421715778129.00,-1.6658858,4.8020144,8.671917
1421715778149.00,-1.672023,4.8907795,8.688382
1421715778169.00,-1.6271164,4.874314,8.660241
1421715778191.00,-1.7685722,4.9605346,8.735385
1421715778209.00,-1.801354,4.9633784,8.519383
1421715778229.00,-1.6019686,5.0201106,8.455766
1421715778248.00,-1.5796651,4.8811994,8.512348
1421715778268.00,-1.7012123,4.912634,8.64632
1421715778288.00,-1.882635,4.9840355,8.682994
1421715778310.00,-1.6480728,4.93374,8.6788025
1421715778327.00,-1.6349002,4.9537983,8.607251
1421715778348.00,-1.5527211,5.094057,8.31416
1421715778369.00,-1.4042299,5.0355287,8.2301855
1421715778388.00,-1.5108082,4.9422727,8.412207
1421715778408.00,-1.5867004,4.9994535,8.558602
1421715778428.00,-1.5191908,4.8662305,8.679851
1421715778448.00,-1.4786252,5.090614,8.532557
1421715778468.00,-1.4073733,5.0668135,8.582851
1421715778488.00,-1.361419,4.962181,8.671917
1421715778509.00,-1.4424005,4.8707213,8.520731
1421715778528.00,-1.4787749,4.8033614,8.62731
1421715778548.00,-1.4459931,4.835245,8.577912
1421715778568.00,-1.3844709,4.729415,8.831485
1421715778588.00,-1.4350657,4.6738806,8.704699
1421715778608.00,-1.3867164,5.0421147,8.585397
1421715778628.00,-1.5554155,5.001699,8.487949
1421715778648.00,-1.607058,5.1365685,8.717123
1421715778670.00,-1.499432,5.0364265,8.712782
1421715778688.00,-1.3683046,5.011279,8.71802
1421715778708.00,-1.6105009,5.02056,8.642727
1421715778728.00,-1.5408957,5.16935,8.729996
1421715778748.00,-1.4497353,5.0558863,8.66099
1421715778769.00,-1.4271322,4.8614407,8.688083
1421715778789.00,-1.3897101,4.871619,8.566536
1421715778809.00,-1.4894028,4.798422,8.510103
1421715778829.00,-1.3328284,4.739594,8.384514
1421715778849.00,-1.4175522,4.917574,8.484806
1421715778869.00,-1.3829741,5.0013995,8.621471
1421715778890.00,-1.4962884,4.9904723,8.566985
1421715778908.00,-1.5563136,5.048851,8.53046
1421715778928.00,-1.4597644,5.019063,8.492889
1421715778948.00,-1.6390915,5.0804353,8.441695
1421715778968.00,-1.7060024,5.1295333,8.491093
1421715778989.00,-1.6157401,5.032086,8.688532
1421715779008.00,-1.5349082,5.248386,8.616531
1421715779028.00,-1.5756235,5.1885104,8.3973875
1421715779049.00,-1.5106586,5.1879115,8.363708
1421715779130.00,-1.4919475,5.0249004,8.538993
1421715779132.00,-1.4970369,4.8409333,8.725505
1421715779133.00,-1.3909076,4.9009585,8.641231
1421715779135.00,-1.2005036,4.859195,8.653356
1421715779168.00,-1.1784993,4.981641,8.528665
1421715779169.00,-1.2862751,5.0018487,8.512797
1421715779188.00,-1.323847,4.8307543,8.599168
1421715779215.00,-1.4557228,4.9436197,8.54977
1421715779273.00,-1.4543756,5.1024394,8.692274
1421715779274.00,-1.30319,4.8481183,8.579858
1421715779276.00,-1.4028827,5.0274453,8.598269
1421715779299.00,-1.5058686,4.997208,8.526569
1421715779348.00,-1.5410454,4.882846,8.622819
1421715779348.00,-1.5271243,5.1332755,8.754845
1421715779349.00,-1.6049625,5.115163,8.676108
1421715779387.00,-1.5673906,5.051695,8.569679
1421715779388.00,-1.6449294,5.0837283,8.516689
1421715779440.00,-1.4897021,4.878655,8.339607
1421715779441.00,-1.4355148,4.8759604,8.3659525
1421715779470.00,-1.4314733,4.878655,8.56444
1421715779471.00,-1.4166541,4.9087424,8.506511
1421715779501.00,-1.4778768,4.7692323,8.688981
1421715779507.00,-1.5364051,5.13582,8.7141285
1421715779529.00,-1.6479231,5.0964518,8.70889
1421715779549.00,-1.5254778,4.990622,8.660241
1421715779568.00,-1.5007792,5.1183066,8.574919
1421715779587.00,-1.5305672,5.0183144,8.299341
1421715779608.00,-1.572929,5.036726,8.405471
1421715779628.00,-1.7417779,5.1418076,8.551717
1421715779650.00,-1.7839901,5.199288,8.583001
1421715779668.00,-1.7028589,5.0713043,8.465197
1421715779750.00,-1.7134868,5.1224976,8.483309
1421715779751.00,-1.7794995,5.1154623,8.394993
1421715779752.00,-1.805246,5.1278863,8.447084
1421715779753.00,-1.7775536,5.3256254,8.316855
1421715779781.00,-1.7058526,5.5004616,8.409662
1421715779790.00,-1.7709672,5.2898498,8.629255
1421715779820.00,-1.8440154,5.150639,8.652457
1421715779828.00,-2.2980213,5.7779846,7.1455407
1421715779848.00,-1.748963,4.8310537,9.3453665
1421715779879.00,-1.8573376,4.964277,9.579779
1421715779894.00,-2.022145,5.240602,8.166867
1421715779938.00,-2.0597167,5.482499,8.042925
1421715779939.00,-1.8429675,5.41963,8.533006
1421715779948.00,-1.5126045,5.306016,8.289612
1421715779968.00,-1.4819183,5.2200947,7.806716
1421715779990.00,-1.7860858,5.3605027,7.9397893
1421715780012.00,-1.5623012,5.1798286,8.197254
1421715780032.00,-1.3721966,5.10708,8.437504
1421715780048.00,-1.2991484,4.835844,8.503517
1421715780068.00,-1.402733,4.878954,8.606802
1421715780088.00,-1.4780264,4.9630795,8.628357
1421715780108.00,-1.4859599,5.1443524,8.713381
1421715780128.00,-1.434916,5.0705557,8.685688
1421715780149.00,-1.5265256,5.090464,8.640931
1421715780169.00,-1.4651532,5.1106725,8.475824
1421715780189.00,-1.5293697,5.0144224,8.654103
1421715780208.00,-1.7027092,5.0346303,8.57402
1421715780228.00,-1.7390835,4.8585963,8.567584
1421715780248.00,-1.7073495,5.013674,8.687185
1421715780270.00,-1.5167958,4.9147296,8.653954
1421715780288.00,-1.5106586,4.8246174,8.731643
1421715780308.00,-1.3897101,4.733307,8.654403
1421715780328.00,-1.4028827,4.5747867,8.809331
1421715780348.00,-1.4162049,4.689598,8.8018465
1421715780373.00,-1.411415,4.541556,8.800948
1421715780388.00,-1.3424084,4.487668,8.760682
1421715780408.00,-1.5061679,4.6195436,8.712782
1421715780428.00,-1.5760726,4.886588,8.736432
1421715780451.00,-1.7579443,4.935237,8.472232
1421715780469.00,-1.7890795,5.101242,8.418045
1421715780495.00,-1.8534458,5.1289344,8.516989
1421715780510.00,-1.8449135,4.9648757,8.621471
1421715780528.00,-1.7438736,4.8563514,7.2756205
1421715780549.00,-2.070195,5.497468,8.072413
1421715780575.00,-2.2408402,5.0960026,8.422086
1421715780588.00,-1.7862355,4.292923,8.506062
1421715780621.00,-1.5944842,4.7572575,8.929082
1421715780639.00,-1.9856209,4.9885263,9.219028
1421715780655.00,-1.6871415,5.0103807,8.700956
1421715780680.00,-1.6595988,4.710554,8.349787
1421715780692.00,-1.5621514,4.691544,8.580906
1421715780708.00,-1.6259189,4.834197,8.585397
1421715780728.00,-1.6699274,4.8292575,8.53046
1421715780748.00,-1.7742604,4.8889832,8.698562
1421715780769.00,-1.9507434,4.784201,9.027128
1421715780788.00,-1.7959653,4.7139974,8.956176
1421715780808.00,-1.7757573,4.702172,8.623118
1421715780832.00,-1.7247134,4.9618816,8.519833
1421715780848.00,-1.7510587,4.8999104,8.492889
1421715780875.00,-1.773063,5.0313373,8.657696
1421715780889.00,-1.7107924,4.9943643,8.956475
1421715780908.00,-1.6968713,4.965025,8.67027
1421715780929.00,-1.522933,5.0590296,8.246501
1421715780948.00,-1.549877,4.869823,8.654552
1421715780968.00,-1.613345,4.79438,8.70395
1421715780989.00,-1.5097604,4.8873367,8.398136
1421715781009.00,-1.6690292,4.975653,8.281079
1421715781028.00,-1.853296,4.8674283,8.370443
1421715781049.00,-2.0483406,4.743336,8.561596
1421715781068.00,-2.015409,4.9599357,8.687933
1421715781088.00,-1.9850221,5.1474957,8.269703
1421715781144.00,-2.0622616,5.226831,8.1866255
1421715781145.00,-2.3020627,4.9762516,8.25713
1421715781148.00,-2.3237677,4.9599357,8.6318
1421715781174.00,-2.3574476,5.072352,8.510852
1421715781191.00,-2.445764,5.0498986,8.58854
1421715781211.00,-2.2653892,5.0461564,8.781339
1421715781243.00,-2.2667363,4.932543,8.566835
1421715781248.00,-2.3682253,5.0009503,8.653655
1421715781279.00,-2.304458,4.996011,8.526569
1421715781296.00,-2.3254142,5.0263977,8.273595
1421715781308.00,-2.4804919,5.0720525,8.09801
1421715781333.00,-2.4554937,4.979545,8.435858
1421715781377.00,-2.3586452,4.886738,8.489296
1421715781378.00,-2.357298,4.9648757,8.214767
1421715781400.00,-2.296225,5.028942,8.223898
1421715781415.00,-2.2285657,5.021158,8.304581
1421715781430.00,-2.0236418,4.86174,8.411907
1421715781470.00,-2.008673,4.7638435,8.471932
1421715781471.00,-2.1194427,4.867578,8.70889
1421715781491.00,-2.061064,4.907245,8.7761
1421715781508.00,-2.0670516,4.828509,8.80993
1421715781528.00,-1.9544857,4.7885423,8.804541
1421715781550.00,-2.0493882,4.8620396,8.7262535
1421715781568.00,-1.8164726,4.8388376,8.850495
1421715781588.00,-1.8112335,4.756958,8.803044
1421715781608.00,-1.9809805,4.6608577,8.715626
1421715781628.00,-2.0676503,4.506678,8.646021
1421715781654.00,-2.1800666,4.77522,8.578811
1421715781671.00,-2.444267,4.810846,8.549023
1421715781688.00,-2.3656805,4.874763,8.72296
1421715781708.00,-2.3754103,4.937033,8.900492
1421715781728.00,-2.3563998,4.8403344,8.611293
1421715781748.00,-2.4349864,4.9115863,8.887768
1421715781771.00,-2.3093977,4.8570995,8.82939
1421715781788.00,-2.1695883,4.6485834,8.929681
1421715781808.00,-1.9806812,4.510271,8.928483
1421715781829.00,-1.783092,4.5653563,9.02638
1421715781849.00,-1.6314573,4.6993275,8.7913685
1421715781869.00,-1.6772621,4.7427373,8.299341
1421715781892.00,-1.8329384,5.0492997,8.02137
1421715781908.00,-1.873055,5.2423983,8.06942
1421715781929.00,-1.90913,5.151238,8.08858
1421715781949.00,-1.8182689,5.1546807,8.281379
1421715781968.00,-1.6582516,5.093458,8.439899
1421715781989.00,-1.7395326,5.0325346,8.619526
1421715782008.00,-1.7868342,5.1633625,8.756341
1421715782028.00,-1.6042141,4.9826884,8.611443
1421715782048.00,-1.4470409,4.7609997,8.789572
1421715782068.00,-1.4693445,4.721781,8.759933
1421715782088.00,-1.4630575,4.8201265,8.712932
1421715782108.00,-1.5920892,4.661756,8.746911
1421715782128.00,-1.468596,4.7850995,8.700507
1421715782148.00,-1.5432907,4.759802,8.625363
1421715782168.00,-1.5736775,4.732409,8.668922
1421715782188.00,-1.7859361,4.8696733,8.56429
1421715782208.00,-1.8236576,4.8062053,8.500822
1421715782230.00,-1.8262024,4.939129,8.470286
1421715782249.00,-1.7685722,5.015171,8.582253
1421715782269.00,-1.7820442,5.000651,8.523874
1421715782290.00,-1.79851,5.1528845,8.467442
1421715782373.00,-1.7762064,5.080136,8.578511
1421715782373.00,-1.7176781,4.8460226,8.797805
1421715782374.00,-1.7841399,4.6638513,8.837472
1421715782376.00,-1.789379,4.7027707,8.732242
1421715782388.00,-1.7175283,4.7386956,8.690029
1421715782408.00,-1.5573615,4.7231283,8.676706
1421715782429.00,-1.5747254,4.710554,8.612939
1421715782448.00,-1.5655943,4.836592,8.589438
1421715782468.00,-1.5895445,4.8594947,8.613238
1421715782490.00,-1.4826667,4.888235,8.603509
1421715782509.00,-1.6509169,4.8648834,8.685688
1421715782530.00,-1.6657361,4.9187713,8.683443
1421715782551.00,-1.6634908,4.7325587,8.73254
1421715782569.00,-1.7101936,4.8841934,8.722362
1421715782590.00,-1.7932708,4.7066627,8.926987
1421715782609.00,-1.5483801,4.8870373,8.682694
1421715782629.00,-1.4542259,4.833299,8.455018
1421715782649.00,-1.7747095,5.0440607,8.573571
1421715782670.00,-1.7851877,4.907245,8.729846
1421715782691.00,-1.7577946,4.8186297,8.838071
1421715782708.00,-1.6802559,4.8500643,8.775801
1421715782728.00,-1.5852035,4.798422,8.692274
1421715782748.00,-1.5254778,4.849615,8.659043
1421715782770.00,-1.7558486,4.9023056,8.702902
1421715782790.00,-1.5934365,4.8647337,8.729996
1421715782813.00,-1.6655864,4.7845006,8.500074
1421715782834.00,-1.7139359,4.743486,8.455467
1421715782848.00,-1.7244141,4.857998,8.612789
1421715782868.00,-1.6769627,4.8623385,8.642877
1421715782890.00,-1.7495618,4.8801517,8.68464
1421715782908.00,-1.6796571,4.8091993,8.772208
1421715782929.00,-1.5322137,4.567003,8.593031
1421715782948.00,-1.6075072,4.7392945,8.603958
1421715782968.00,-1.676813,4.8668294,8.5598
1421715782997.00,-1.6419356,4.920268,8.696316
1421715783012.00,-1.6437318,4.744234,8.614586
1421715783030.00,-1.6726217,4.689149,8.537047
1421715783049.00,-1.5832576,4.907994,8.550669
1421715783082.00,-1.7083974,4.953649,8.450078
1421715783147.00,-1.7649797,4.851711,8.585097
1421715783148.00,-1.6322058,4.7425876,8.760682
1421715783149.00,-1.7315991,4.903054,9.0551195
1421715783150.00,-1.6157401,4.8114448,8.935369
1421715783185.00,-1.6088544,4.9009585,8.764724
1421715783193.00,-1.6631913,4.6675935,8.648116
1421715783257.00,-1.6447797,4.7427373,8.712632
1421715783257.00,-1.4946419,4.797374,8.561147
1421715783258.00,-1.4310242,4.735702,8.74227
1421715783282.00,-1.45707,4.7819557,8.776849
1421715783290.00,-1.5164964,4.746629,8.601264
1421715783339.00,-1.5554155,4.896168,8.855585
1421715783340.00,-1.35124,4.5391607,8.683443
1421715783348.00,-1.2677138,4.7229786,8.728649
1421715783372.00,-1.2641213,4.5608654,8.938362
1421715783420.00,-0.9234297,4.3773475,9.2995615
1421715783421.00,-1.0367441,4.2667274,9.268426
1421715783428.00,-0.7854167,3.987857,9.453891
1421715783472.00,-0.79544586,4.023633,9.321266
1421715783473.00,-0.6101312,4.299659,9.118737
1421715783489.00,-0.22393432,4.4854226,8.929381
1421715783512.00,0.01751358,4.0383024,9.102871
1421715783528.00,0.032931518,3.2784824,8.757239
1421715783550.00,0.013621674,3.525768,8.999435
1421715783568.00,0.104333036,3.4033227,9.846225
1421715783588.00,0.33470398,3.0217662,9.968969
1421715783609.00,0.2296225,2.944527,9.65118
1421715783628.00,-0.55235136,3.450325,9.391769
1421715783648.00,-0.52091676,3.8125718,9.291927
1421715783721.00,-0.1871109,3.6401303,8.856033
1421715783723.00,0.36419266,3.8740938,8.541986
1421715783724.00,-1.8646724,5.296137,11.626772
1421715783749.00,-0.22333556,4.3095384,7.78082
1421715783750.00,0.30177248,4.2104445,7.829319
1421715783771.00,0.9831555,4.03456,9.134604
1421715783789.00,1.7559984,3.2115715,9.582323
1421715783822.00,1.9510428,3.382067,8.662486
1421715783828.00,2.2695804,3.4822087,8.264614
1421715783849.00,1.9245479,3.4881964,8.31925
1421715783868.00,1.4127622,3.5061588,8.63644
1421715783891.00,1.4072237,4.025579,8.123906
1421715783913.00,1.5756235,3.9652543,7.759414
1421715783928.00,1.8305434,3.928281,8.6136875
1421715783949.00,2.3646326,3.3229399,9.756262
1421715784012.00,1.9600241,3.216661,10.08378
1421715784013.00,1.8175205,3.2985406,9.871971
1421715784014.00,2.4243586,2.6530828,9.215286
1421715784044.00,2.9202774,2.957849,8.943901
1421715784050.00,2.0731888,3.3048277,9.25241
1421715784069.00,1.2028985,3.5691779,9.598041
1421715784088.00,1.0487192,2.9900322,9.979897
1421715784108.00,1.597478,3.0416749,9.8221245
1421715784129.00,1.6302599,3.455115,9.204509
1421715784160.00,1.1799961,3.8386176,9.2063055
1421715784168.00,1.1678714,3.739374,9.207354
1421715784188.00,1.6920813,2.798281,9.0165
1421715784208.00,2.4628286,2.879113,9.010962
1421715784228.00,1.7857864,3.5504668,9.291778
1421715784248.00,1.6816031,3.617228,9.014255
1421715784268.00,1.7673748,3.4500256,8.900492
1421715784332.00,1.5754738,3.6940184,8.507409
1421715784333.00,1.497486,3.9173539,8.09801
1421715784334.00,1.8290465,3.8601727,8.392447
1421715784364.00,2.3379881,3.2561789,9.087303
1421715784369.00,2.402504,3.2831228,9.7023735
1421715784388.00,1.9751427,3.4441879,9.578281
1421715784409.00,1.9435583,3.222798,9.4242525
1421715784428.00,1.6103512,3.7181182,9.439072
1421715784448.00,1.7771045,2.8747718,8.576565
1421715784508.00,1.5334113,2.8033705,9.155411
1421715784509.00,1.3139676,3.307971,9.308543
1421715784522.00,1.1744577,2.7940896,9.98319
1421715784528.00,1.178649,3.2352223,9.501342
1421715784549.00,1.9941531,3.293601,9.058562
1421715784569.00,1.637445,3.2395632,9.169782
1421715784589.00,1.1683204,3.4813106,9.556128
1421715784608.00,1.3947995,3.3126113,9.049881
1421715784684.00,1.5422429,3.387905,8.55995
1421715784685.00,1.5512242,3.3206947,8.881182
1421715784686.00,1.5479311,3.29405,9.126821
1421715784689.00,1.4712905,3.2802787,8.970995
1421715784718.00,1.4245876,3.2933016,9.084758
1421715784728.00,1.7098943,3.1677127,9.2504635
1421715784748.00,1.961072,3.0472133,9.337433
1421715784769.00,1.8696121,3.3009357,9.185648
1421715784788.00,1.5280224,3.5819013,9.062005
1421715784809.00,1.3458513,3.7468584,9.0518265
1421715784840.00,1.1642789,3.9559736,9.038954
1421715784848.00,1.1868819,3.5058596,9.194779
1421715784868.00,1.0439291,3.1256502,9.080566
1421715784889.00,1.5371535,3.0555959,9.27591
1421715784909.00,1.8953586,3.6146832,9.320967
1421715784928.00,1.5799644,3.6519556,9.1555605
1421715785003.00,1.3732443,3.335813,8.856932
1421715785004.00,1.1279045,3.5265167,8.773705
1421715785006.00,0.68767,3.819607,8.715326
1421715785012.00,0.94079363,4.038452,8.549321
1421715785037.00,1.1885284,5.1897078,9.611214
1421715785049.00,2.1722827,5.0048423,8.908276
1421715785068.00,1.6914825,4.0266266,7.4178247
1421715785089.00,2.3243666,5.61677,4.7859974
1421715785112.00,1.6766634,5.1778827,4.738247
1421715785177.00,2.2004242,5.1296825,5.8718395
1421715785184.00,2.4023542,4.03935,5.2335668
1421715785185.00,3.5482213,3.121908,3.9910007
1421715785200.00,3.4537678,3.4582586,5.1485434
1421715785208.00,2.701582,3.9007385,4.7457314
1421715785229.00,1.6226257,2.6191034,5.157076
1421715785250.00,2.039958,0.17872833,5.488786
1421715785279.00,3.430566,-0.083526306,6.0200315
1421715785469.00,3.1181657,1.0690769,5.7303834
1421715785470.00,1.5521224,1.9173628,5.2711387
1421715785471.00,2.2258713,0.8680449,5.785619
1421715785485.00,5.51558,-0.6578819,6.0526633
1421715785491.00,6.4963408,1.1955638,6.6412396
1421715785494.00,5.9540186,1.4759308,6.652915
1421715785497.00,5.631589,-0.1977388,7.6050854
1421715785499.00,7.073241,-0.57106245,6.0930796
1421715785501.00,8.884175,0.88316345,5.6577845
1421715785506.00,8.577014,1.8624271,8.144713
1421715785507.00,7.8040214,-0.21300705,9.438772
1421715785670.00,9.8447275,-3.0802946,9.553433
1421715785677.00,11.443852,-1.3404624,7.425758
1421715785690.00,10.813363,1.3222004,5.7535853
1421715785692.00,10.773846,-0.16675323,5.126539
1421715785693.00,13.077555,-2.0255878,5.4486694
1421715785694.00,13.797109,-0.7381151,4.8922763
1421715785695.00,12.357702,0.52855086,5.1897078
1421715785718.00,11.567346,-1.0178833,5.6733522
1421715785727.00,12.029434,-3.6169286,7.690857
1421715785728.00,11.952045,-2.7933412,7.1308713
1421715785737.00,10.96889,-1.7315991,4.652924
1421715785738.00,11.125914,-2.4119344,3.52966
1421715785788.00,12.039913,-2.839146,5.1174083
1421715785789.00,11.973152,-2.8440857,6.7496142
1421715785790.00,12.05114,-3.2078292,5.966143
1421715785837.00,12.300371,-3.0234127,3.0885274
1421715785838.00,10.526111,-2.9560528,0.5198689
1421715785857.00,9.737251,-3.2331266,0.0199086
1421715785907.00,9.235794,-3.421884,0.19893631
1421715785915.00,9.682466,-3.109933,1.22625
1421715785918.00,10.010733,-2.481839,3.2085776
1421715786033.00,9.942624,-3.2578254,2.2695804
1421715786034.00,11.74293,-4.0984774,1.8320403
1421715786035.00,9.412577,-1.5482304,-0.3691324
1421715786041.00,10.4864435,-3.822451,0.6453081
1421715786042.00,9.822424,-2.4563918,0.5596861
1421715786044.00,6.965465,-1.1934682,-0.46164
1421715786071.00,7.009923,-2.6652076,1.1807446
1421715786072.00,6.9370246,-1.1606864,1.0579998
1421715786153.00,6.202951,-0.44502458,-0.36703673
1421715786154.00,5.2459908,-0.19145188,-0.007933502
1421715786155.00,3.8239481,0.3983217,0.843945
1421715786156.00,5.3076625,0.21689896,-0.39098695
1421715786169.00,7.0304303,-0.91355026,0.2640509
1421715786189.00,8.60291,-1.9470012,0.25297394
1421715786208.00,8.990455,-8.019723,-2.516417
1421715786228.00,7.018904,-3.8092785,-3.5802548
1421715786250.00,7.158863,-3.126698,-2.1782703
1421715786272.00,9.076376,-4.5089235,-0.45071274
1421715786342.00,10.42058,-11.34446,-0.35416353
1421715786343.00,5.6305413,-8.154742,-0.46164
1421715786344.00,4.816534,-6.538553,-0.9288185
1421715786349.00,5.707631,-4.6692405,0.18950592
1421715786368.00,4.5421543,-3.8462517,0.23830444
1421715786389.00,3.5530114,-6.562952,-0.2363585
1421715786409.00,4.586313,-7.608079,-0.57540345
1421715786429.00,5.688471,-13.715678,-2.1667442
1421715786448.00,9.172476,-16.667988,-1.4965879
1421715786469.00,7.527846,-12.504397,-1.681154
1421715786489.00,5.009483,-5.975125,-7.2899904
1421715786508.00,0.72868466,-5.3768187,4.480034
1421715786529.00,6.283633,-8.09322,3.4799633
1421715786548.00,5.440736,-6.032755,1.1569442
1421715786568.00,4.658014,-7.840845,0.02694397
1421715786664.00,4.5782294,-9.702823,-0.33470398
1421715786665.00,2.3778052,-9.823322,-2.351011
1421715786666.00,2.0303779,-10.043365,-1.3837225
1421715786667.00,2.5074358,-8.483908,-0.47601014
1421715786671.00,2.0305276,-8.326884,-0.66791105
1421715786689.00,2.8839028,-9.060658,-0.19579285
1421715786708.00,2.6201513,-2.7985804,-0.09520203
1421715786728.00,4.149521,-5.731581,1.4810202
1421715786748.00,3.679798,-7.6011934,0.8316705
1421715786768.00,2.7547216,-4.13066,0.7810757
1421715786788.00,2.98629,-6.4354177,1.5242802
1421715786808.00,3.4688864,-7.0283346,-2.7873538
1421715786829.00,0.8313711,-7.908504,-1.3789325
1421715786848.00,-0.55893767,-6.488557,0.26464966
1421715786868.00,-1.3451028,-7.2796617,-4.3224115
1421715786888.00,-1.8708097,-9.377549,-6.1489134
1421715786912.00,-1.7784517,-9.659713,1.3524376
1421715787015.00,0.4978647,-5.9573116,7.450906
1421715787016.00,-0.93630296,-4.0607557,5.2976336
1421715787017.00,-1.4602134,-4.08276,-2.4071443
1421715787018.00,-1.1481125,-3.9636075,-1.9767892
1421715787019.00,-1.1918216,-4.755162,0.09116043
1421715787028.00,-3.3347654,-10.094409,1.4612613
1421715787048.00,-12.309203,-18.290764,3.5194812
1421715787069.00,-2.2321582,-9.017398,-1.6073575
1421715787099.00,-0.954565,-3.1933095,-3.4256263
1421715787108.00,-3.3450937,-7.361392,-0.6746471
1421715787128.00,-6.344856,-9.883198,0.9488768
1421715787149.00,-4.988077,-7.839348,1.5352075
1421715787168.00,-5.1792297,-8.759035,1.5615528
1421715787189.00,-5.141059,-8.626112,0.945434
1421715787208.00,-3.8977447,-9.088051,0.5906717
1421715787272.00,-4.0228844,-9.033415,-0.22378464
1421715787274.00,-4.193979,-8.793015,0.41673338
1421715787276.00,-3.8716989,-8.543933,0.45969406
1421715787297.00,0.34937346,-9.218281,-3.4786162
1421715787311.00,-1.6347505,-10.796598,2.187551
1421715787333.00,-6.170618,-9.072634,0.11855347
1421715787348.00,-5.3838544,-9.229058,-3.479215
1421715787368.00,-4.733307,-8.79047,-2.8360026
1421715787389.00,-4.400549,-8.788673,-1.1073972
1421715787409.00,-4.6925917,-9.01156,-0.4725673
1421715787432.00,-3.8966968,-9.52155,-0.5542973
1421715787448.00,-3.9502854,-9.67543,-1.5605049
1421715787468.00,-3.6697686,-9.591305,-0.9806108
1421715787488.00,-3.619174,-10.21865,2.3439758
1421715787510.00,-5.450765,-7.903864,1.6302599
1421715787530.00,-4.8249164,-7.927814,1.5417938
1421715787610.00,-3.4485288,-8.851693,1.0416838
1421715787612.00,-2.6117687,-9.089997,0.3543132
1421715787614.00,-1.9989432,-10.023157,3.9748342
1421715787616.00,0.2745291,-10.985505,-1.8673668
1421715787636.00,-0.09894425,-11.446397,-2.5788374
1421715787653.00,-2.002835,-11.433973,-2.836751
1421715787669.00,-2.2671854,-11.251053,0.3516188
1421715787690.00,-3.2000456,-11.088791,0.73093003
1421715787709.00,-3.1133757,-10.471624,1.361868
1421715787729.00,-4.7891407,-6.2110343,3.8459523
1421715787748.00,-2.1329145,-5.026248,5.413942
1421715787768.00,-0.7351213,-6.757847,0.21121079
1421715787789.00,0.14549744,-9.735006,1.013243
1421715787809.00,-3.996539,-7.765252,0.67075515
1421715787829.00,-4.4848237,-7.931257,-0.36658767
1421715787849.00,0.19055374,-12.200829,-4.094136
1421715787869.00,4.336931,-12.307706,-2.6108706
1421715787981.00,2.9044104,-9.518556,7.773036
1421715787982.00,1.7353413,-11.032807,1.6616945
1421715787983.00,-0.86325485,-10.259515,-0.44816804
1421715787984.00,-1.3744419,-9.697434,-0.8009843
1421715787985.00,-0.89678514,-10.064621,-0.75622743
1421715787999.00,-0.7887099,-9.639205,-0.82074326
1421715788008.00,-0.59890455,-9.00213,-0.33126113
1421715788029.00,-0.3318599,-8.893755,0.29219237
1421715788050.00,-0.007185059,-9.361682,1.07716
1421715788068.00,-0.52855086,-9.742042,1.2052935
1421715788089.00,-0.65638506,-9.72363,1.0885364
1421715788108.00,-0.12903167,-10.00235,1.0108479
1421715788128.00,-0.09999207,-9.863738,0.50265473
1421715788149.00,-0.31165192,-9.719289,0.16660355
1421715788169.00,-0.5987549,-9.769883,0.22468276
1421715788188.00,-0.66416883,-9.480386,0.6465056
1421715788209.00,-0.66342044,-9.557775,0.7506889
1421715788284.00,-0.5999524,-9.668394,0.5800438
1421715788287.00,-0.49546966,-9.765991,0.5312453
1421715788288.00,-0.74036044,-9.848769,0.5072951
1421715788290.00,-0.9916878,-9.802067,0.60204804
1421715788309.00,-0.97312635,-9.632469,0.56208116
1421715788329.00,-0.8083191,-9.602232,0.574655
1421715788349.00,-0.96938413,-9.790391,0.4788542
1421715788368.00,-1.0395882,-9.664502,0.54441786
1421715788389.00,-0.88061875,-9.688453,0.52450925
1421715788412.00,-0.7005432,-9.525742,0.7560777
1421715788429.00,-0.7117699,-9.564361,0.9653426
1421715788449.00,-0.63527894,-9.704919,1.0102491
1421715788468.00,-0.6423143,-9.653725,0.6156697
1421715788491.00,-0.59097105,-9.528585,0.714614
1421715788509.00,-0.5911208,-9.695488,0.9183403
1421715788584.00,-0.6706055,-9.609716,0.8985814
1421715788585.00,-0.53109556,-9.688153,1.1079959
1421715788586.00,-0.4724176,-9.7139,0.9671388
1421715788596.00,-0.44532394,-9.68007,0.7918533
1421715788609.00,-0.50504977,-9.566906,0.8981323
1421715788628.00,-0.5575905,-9.528585,1.0792557
1421715788649.00,-0.6069878,-9.376053,1.2603791
1421715788668.00,-0.44382706,-9.387877,1.4217435
1421715788689.00,-0.32467484,-9.404493,1.280587
1421715788711.00,-0.2667453,-9.591305,1.203647
1421715788728.00,-0.22123992,-9.599837,1.3385166
1421715788748.00,0.10298584,-9.817485,1.4630575
1421715788770.00,0.2402504,-9.946516,1.4726377
1421715788788.00,0.31000534,-10.032288,1.4013858
1421715788808.00,0.5081932,-9.808204,1.229094
1421715788828.00,0.4312532,-9.540859,1.3410612
1421715788851.00,0.21420456,-9.58382,1.2350817
1421715788869.00,-0.15702347,-9.665251,1.1552975
1421715788943.00,-0.25042924,-9.72812,1.232986
1421715788943.00,-0.52570677,-9.556277,1.040636
1421715788944.00,-0.3740721,-9.412277,1.1106904
1421715788955.00,-0.030686188,-9.419911,1.3232483
1421715788968.00,0.19998413,-9.378448,1.567241
1421715788988.00,0.31539413,-9.435629,1.6625926
1421715789008.00,0.701591,-9.679471,1.5881974
1421715789028.00,0.6066884,-9.440718,1.3799803
1421715789050.00,0.45595184,-9.417516,1.3332775
1421715789068.00,0.015268249,-9.620494,1.2901671
1421715789088.00,-0.37182677,-9.6898,1.3250445
1421715789109.00,-0.36404297,-9.665999,1.1335927
1421715789128.00,-0.10178833,-9.70432,0.7791298
1421715789148.00,0.3080594,-10.034234,0.445773
1421715789168.00,0.09460327,-9.951306,0.11960129
1421715789237.00,-0.13980927,-9.95924,-0.101488955
1421715789238.00,-0.102536775,-10.255175,0.43649232
1421715789239.00,0.16106506,-10.599459,0.603994
1421715789248.00,0.24010071,-10.402617,0.9051677
1421715789269.00,0.1911525,-9.899065,1.1930192
1421715789289.00,-0.5824388,-9.47814,1.2337345
1421715789308.00,-1.5479311,-9.381142,0.6182144
1421715789329.00,-1.7031583,-9.553433,-0.3275189
1421715789349.00,-1.2948074,-9.882449,-0.6730005
1421715789372.00,-0.7843689,-10.517429,-0.65264285
1421715789389.00,-0.44921586,-10.938952,-1.1687695
1421715789409.00,0.3183879,-11.143127,-2.1171973
1421715789429.00,0.84155,-11.463612,-3.3052766
1421715789448.00,0.044607237,-11.7561035,-3.8736448
1421715789469.00,-1.2091855,-12.176279,-1.8068925
1421715789489.00,-2.4313939,-11.889775,0.099543
1421715789550.00,-2.2778132,-10.875335,3.0835876
1421715789551.00,-0.9473799,-9.037007,2.0209475
1421715789552.00,-1.332529,-8.149203,0.7366182
1421715789569.00,-1.8637743,-8.614586,-1.0300081
1421715789589.00,-2.0612137,-8.712782,-2.0143611
1421715789608.00,-1.7275575,-8.380921,-2.0511847
1421715789628.00,-1.4799724,-7.5308394,-1.4630575
1421715789652.00,-1.6651373,-6.70845,-0.843945
1421715789670.00,-1.7729132,-6.2795916,-0.48529083
1421715789696.00,-1.5476317,-6.4614635,-0.71596116
1421715789710.00,-1.1904744,-6.516998,-0.8497829
1421715789728.00,-0.85906357,-5.9309664,-1.2434642
1421715789749.00,-0.13561799,-5.407505,-1.515748
1421715789769.00,0.83256865,-4.889582,-1.7253122
1421715789788.00,1.5182927,-4.7301636,-2.5836272
1421715789809.00,1.8769469,-5.680537,-2.9780571
1421715789829.00,2.158212,-7.6154137,-2.708318
1421715789896.00,1.8652711,-8.966953,-1.7524059
1421715789897.00,1.2696598,-9.356294,-1.9898121
1421715789898.00,0.79739183,-9.910741,-2.4454646
1421715789909.00,0.5984555,-9.81958,-3.1431637
1421715789929.00,0.0902623,-9.1378975,-3.4347575
1421715789949.00,-0.58109164,-9.2239685,-3.3256342
1421715789969.00,-0.8878038,-9.558224,-2.8104057
1421715789989.00,-0.6598279,-9.525143,-2.7180479
1421715790008.00,-0.51118696,-9.488319,-4.110452
1421715790029.00,-0.77329195,-9.181308,-5.230124
1421715790050.00,-0.8659493,-9.463021,-5.1063313
1421715790068.00,-1.2078383,-10.497071,-4.986131
1421715790088.00,-0.6905141,-12.201576,-3.945196
1421715790109.00,-0.29503646,-13.722115,-1.058898
1421715790129.00,-0.12828323,-15.61912,-0.36194733
1421715790152.00,2.6497898,-18.587297,-7.220385
1421715790223.00,0.5598358,-11.825409,2.7027795
1421715790225.00,-1.2903168,-8.459209,5.365592
1421715790226.00,-1.5769707,-10.149943,4.558321
1421715790236.00,-1.6259189,-12.961546,2.642455
1421715790252.00,0.23665787,-13.380974,-0.9199869
1421715790269.00,2.331851,-12.206516,-2.64485
1421715790288.00,2.1037252,-10.344239,0.055534516
1421715790309.00,0.81415695,-9.135503,1.5543677
1421715790329.00,-0.2812651,-8.831784,0.3929329
1421715790349.00,0.09879456,-9.023985,-0.44173142
1421715790369.00,0.8472382,-8.80963,-0.7158115
1421715790393.00,0.8490344,-8.588091,-0.6343808
1421715790409.00,0.43604323,-8.729097,-0.83002394
1421715790429.00,1.035846,-9.014105,-0.40805146
1421715790449.00,1.1376343,-9.317973,-0.44128236
1421715790470.00,1.235381,-9.589359,-1.1059003
1421715790550.00,1.3795313,-9.621991,-2.0660038
1421715790552.00,1.1428734,-9.225017,-2.0713925
1421715790555.00,0.9020242,-9.128917,-1.7088464
1421715790556.00,0.62674665,-8.835377,-0.5809419
1421715790569.00,0.34024248,-8.677305,0.20716919
1421715790589.00,0.41748184,-9.335486,0.21689896
1421715790609.00,0.07140152,-9.880504,-0.3595523
1421715790632.00,0.20103195,-9.53098,-0.37796402
1421715790654.00,0.524659,-9.652678,-0.8068222
1421715790675.00,0.94333833,-8.734487,-0.37751496
1421715790689.00,0.8904982,-8.316406,0.37990996
1421715790716.00,0.51822233,-9.546548,0.065713346
1421715790730.00,0.5530998,-10.181228,-1.6819024
1421715790749.00,0.04415817,-9.120384,-1.8422191
1421715790769.00,-0.5682184,-7.596403,-0.66955763
1421715790790.00,-0.22707778,-8.072413,-1.3874648
1421715790809.00,0.044607237,-9.797127,-1.5223343
1421715790862.00,0.7256909,-9.007968,-1.540746
1421715790863.00,0.65204406,-8.420889,-0.15567628
1421715790874.00,0.59127045,-8.976832,0.6038443
1421715790888.00,0.9500743,-9.302106,0.5315446
1421715790908.00,1.7937199,-9.174721,-1.6832497
1421715790929.00,1.429677,-9.129365,-1.5886464
1421715790949.00,0.6596782,-9.147029,-0.79454774
1421715790969.00,0.5454657,-8.920849,-0.66252226
1421715790991.00,1.0153385,-8.775651,-1.5869998
1421715791009.00,0.5825885,-8.729846,-1.4730867
1421715791029.00,-0.05388794,-9.2609415,-2.0640578
1421715791049.00,1.0065069,-9.205856,-2.80831
1421715791073.00,1.6836988,-8.088281,-2.2152433
1421715791090.00,1.6175363,-7.611372,-2.6825716
1421715791110.00,1.9871178,-9.077573,-3.0376332
1421715791129.00,2.6107209,-12.937447,-4.020489
1421715791266.00,1.9059864,-18.521435,-6.553821
1421715791266.00,-1.9462527,-19.105968,-7.7266326
1421715791267.00,-3.1150222,-14.944324,-3.9589672
1421715791268.00,-2.1722827,-10.842403,-2.970423
1421715791271.00,-0.35386413,-8.339607,-1.8507514
1421715791272.00,-0.29503646,-8.115523,-1.8898201
1421715791273.00,-0.52001864,-10.4445305,-3.167563
1421715791293.00,-0.6225554,-10.298135,-2.9906309
1421715791316.00,-0.4376898,-8.809481,-2.4860303
1421715791329.00,-0.3185376,-7.278165,-2.0715423
1421715791349.00,-0.6303392,-5.882018,-2.6689498
1421715791369.00,-1.8868263,-5.3624487,-3.0831385
1421715791389.00,-3.1057415,-5.4093013,-2.2420378
1421715791409.00,-3.3320708,-6.428831,-2.0896544
1421715791429.00,-2.4761508,-6.682404,-2.3102958
1421715791449.00,-1.5887961,-6.531218,-2.537673
1421715791469.00,-1.198857,-6.1056533,-2.4505541
1421715791534.00,-1.1750565,-5.9249787,-2.1148024
1421715791535.00,-0.9568103,-6.3584776,-1.8705102
1421715791536.00,-0.9382489,-7.321874,-2.088906
1421715791549.00,-0.5755531,-8.023615,-2.5667124
1421715791570.00,0.12543915,-8.52148,-2.9461734
1421715791589.00,1.3350737,-9.0647,-2.9587471
1421715791609.00,2.073638,-9.308991,-3.318
1421715791630.00,2.7045758,-9.638307,-4.1981697
1421715791649.00,2.8324099,-9.530531,-4.8493156
1421715791669.00,2.6463468,-9.4226055,-5.02999
1421715791689.00,1.7299526,-9.00662,-5.4569025
1421715791709.00,0.70293826,-8.523725,-4.7865963
1421715791729.00,0.27168503,-8.041278,-3.5796561
1421715791749.00,0.44367737,-7.532935,-2.9014165
1421715791769.00,0.55669236,-7.34792,-3.0356872
1421715791789.00,0.5863307,-7.6341248,-3.303181
1421715791852.00,0.2613565,-8.563692,-2.9806018
1421715791852.00,0.11570938,-9.081764,-2.3327491
1421715791853.00,-0.9633966,-8.546627,-3.0246103
1421715791869.00,-2.0011885,-8.201145,-4.350104
1421715791892.00,-2.0309765,-9.086854,-6.125412
1421715791909.00,-2.3028114,-11.756851,-6.5488815
1421715791929.00,-1.7821939,-14.495257,-4.1613464
1421715791949.00,-1.8676661,-14.723533,1.8372793
1421715791969.00,0.032332763,-18.453176,-3.0904734
1421715791989.00,4.049679,-16.112194,-4.136498
1421715792009.00,-0.84364563,-9.05018,7.058572
1421715792029.00,-1.1075468,-6.4869103,7.2230797
1421715792049.00,0.03517685,-10.705288,4.8395863
1421715792070.00,0.85142946,-14.085409,-1.6810043
1421715792089.00,2.6951454,-13.855188,-3.885021
1421715792110.00,1.87545,-11.443104,-0.5689668
1421715792166.00,1.1521541,-9.607921,2.4330404
1421715792168.00,0.70967424,-8.786129,0.6596782
1421715792169.00,0.407303,-9.028625,-0.857417
1421715792189.00,0.36943176,-8.808882,-0.6800358
1421715792209.00,0.21121079,-8.179291,-0.73033124
1421715792229.00,-0.05882767,-8.13648,-1.3956976
1421715792249.00,0.2866539,-8.289762,-2.570305
1421715792269.00,0.89618635,-8.275392,-3.26516
1421715792289.00,1.2364289,-8.113728,-3.7841308
1421715792309.00,1.0029144,-7.6332264,-3.596571
1421715792329.00,0.9020242,-7.591314,-3.8347256
1421715792349.00,0.850681,-8.6473675,-4.391867
1421715792369.00,0.55774015,-8.49259,-1.6241226
1421715792394.00,-0.061821442,-7.751032,-0.37197646
1421715792412.00,0.23141876,-7.9020677,-2.8119025
1421715792490.00,-0.34278718,-8.875643,-2.7740314
1421715792495.00,-0.40820113,-7.8284206,-0.22483246
1421715792496.00,0.7442523,-7.40091,-0.89139634
1421715792497.00,1.2326866,-8.264165,-1.198857
1421715792509.00,1.2174183,-8.959768,-0.62165725
1421715792531.00,1.2545412,-8.968599,-0.07020401
1421715792549.00,1.4727874,-8.822653,-1.2163706
1421715792569.00,1.8176701,-9.453741,-1.8838326
1421715792589.00,1.3136683,-9.419163,-2.0752845
1421715792609.00,1.1811937,-9.351204,-1.997147
1421715792631.00,1.8471588,-9.874216,-3.3443453
1421715792653.00,1.9284397,-10.826536,-3.3447945
1421715792669.00,1.6283139,-12.997322,-4.265829
1421715792689.00,0.4948709,-18.491497,-7.5163198
1421715792709.00,-3.648064,-19.267334,-8.909472
1421715792729.00,-3.3160543,-13.899496,-5.9098606
1421715792750.00,-1.1121871,-9.510473,-3.4033227
1421715792769.00,-0.7566765,-7.1663475,-0.65204406
1421715792830.00,-2.2499712,-5.6562877,-0.48933244
1421715792831.00,-3.4640963,-7.0006423,-1.8534458
1421715792832.00,-2.8816576,-9.952653,-4.9865804
1421715792849.00,-1.4509327,-11.389067,-4.6436434
1421715792869.00,-1.2871733,-9.094937,-3.1488519
1421715792889.00,-1.6235238,-7.4636292,-2.0116668
1421715792909.00,-2.4930656,-6.5677423,-2.3647823
1421715792929.00,-3.242108,-5.9121056,-2.8424392
1421715792949.00,-2.9900322,-6.0261683,-3.1198123
1421715792969.00,-2.498155,-6.495443,-3.5221756
1421715792989.00,-2.3209236,-6.3062363,-3.0024564
1421715793010.00,-1.9760408,-6.316864,-2.4525
1421715793031.00,-1.8212627,-6.072871,-1.7744101
1421715793050.00,-1.1524534,-6.0074573,-0.88346285
1421715793071.00,-0.3492238,-5.47741,-0.6774911
1421715793090.00,0.31225067,-4.679569,-1.1960129
1421715793174.00,0.8731343,-5.0590296,-2.0314257
1421715793177.00,1.4191988,-6.4464946,-2.5411158
1421715793179.00,3.0323942,-8.952134,-2.7060728
1421715793180.00,3.8712497,-10.481204,-3.2112722
1421715793191.00,3.5049615,-10.046059,-3.0874796
1421715793209.00,1.941313,-9.506132,-3.5462754
1421715793229.00,0.6436615,-10.675949,-4.84243
1421715793249.00,0.029788055,-10.989996,-6.8629284
1421715793270.00,-0.71626055,-9.75746,-5.78996
1421715793289.00,-2.1851559,-8.947643,-4.084107
1421715793310.00,-2.749183,-8.544083,-3.7348833
1421715793329.00,-2.2826033,-8.506062,-2.8556118
1421715793350.00,-1.5126045,-8.7527485,-2.4631279
1421715793373.00,-1.1509566,-9.766141,-4.0188427
1421715793391.00,-0.712668,-11.214529,-5.688471
1421715793411.00,-0.19968475,-12.53643,-0.9873468
1421715793481.00,-1.1087444,-13.749658,4.24143
1421715793483.00,0.2321672,-18.247503,-3.863915
1421715793484.00,7.2654414,-17.87987,-12.571757
1421715793494.00,-1.0355465,-9.830058,6.291716
1421715793509.00,-2.2887406,-7.528594,6.6503706
1421715793529.00,-1.4675483,-8.900791,4.9109874
1421715793549.00,-0.44652146,-12.633878,2.2061124
1421715793570.00,1.6928297,-13.655354,-2.4143293
1421715793590.00,3.6327956,-11.6932335,-5.0283437
1421715793610.00,1.9414628,-8.331375,-0.4710704
1421715793629.00,0.8225395,-7.6716967,2.2357507
1421715793649.00,0.54217255,-8.296048,-0.1181044
1421715793669.00,1.043031,-9.431887,-0.67764086
1421715793689.00,1.1082953,-9.778116,-0.90696394
1421715793709.00,0.8247849,-9.294322,-1.3236973
1421715793731.00,1.0259665,-8.943602,-2.0728893
1421715793749.00,1.4406042,-8.971893,-1.7961149
1421715793815.00,1.373394,-9.136102,-1.271007
1421715793816.00,1.2093352,-8.826395,-1.7872833
1421715793817.00,1.2180171,-8.586145,-2.6240432
1421715793830.00,1.0780581,-8.382568,-2.2773643
1421715793849.00,1.0413845,-8.411757,-1.8607805
1421715793869.00,1.0575508,-8.636291,-2.134561
1421715793890.00,0.4869374,-8.421188,-2.5716522
1421715793909.00,-0.59785676,-7.831265,-2.0968397
1421715793929.00,-1.137335,-7.8603044,-1.3973442
1421715793949.00,-0.7845186,-8.326884,-2.5938063
1421715793969.00,-0.020357667,-8.69467,-3.493585
1421715793989.00,-0.24773483,-7.9962215,-0.123193815
1421715794009.00,0.04700226,-7.7457924,-0.5673202
1421715794029.00,0.9491762,-8.507259,-1.7977616
1421715794049.00,0.27018815,-8.716973,-0.23680755
1421715794099.00,0.32692015,-8.503517,-0.13277389
1421715794101.00,1.1620336,-8.556058,-1.6359481
1421715794109.00,1.7136365,-9.283545,-0.524659
1421715794129.00,1.7185762,-9.348061,-0.8836125
1421715794149.00,1.3150154,-9.63711,-1.3787827
1421715794170.00,1.3942008,-9.566157,-1.1684701
1421715794189.00,1.5471826,-8.907976,-1.3906082
1421715794209.00,1.735042,-9.879156,-1.7101936
1421715794229.00,1.9570303,-10.366094,-1.2813355
1421715794249.00,2.9609926,-13.1283,-2.646796
1421715794270.00,3.9924974,-18.616936,-6.52553
1421715794289.00,0.47331575,-17.929714,-8.69916
1421715794311.00,-1.4858103,-14.678626,-5.4101996
1421715794329.00,-1.619632,-11.933035,-2.2029688
1421715794350.00,-1.8787432,-9.668394,0.016615449
1421715794369.00,-2.2059627,-8.5469265,-1.1220666
1421715794389.00,-2.457739,-9.594149,-4.647835
1421715794449.00,-1.8022522,-10.86815,-4.2704697
1421715794450.00,-1.1820918,-9.649533,-1.667233
1421715794451.00,-0.7623646,-7.725435,-0.50325346
1421715794469.00,-1.6295114,-5.506449,-0.746797
1421715794489.00,-3.309468,-4.362079,-1.1325449
1421715794512.00,-3.5221756,-4.4756927,-1.1609857
1421715794529.00,-3.0741572,-4.8279104,-0.8946895
1421715794549.00,-2.7651997,-4.52524,-0.32093263
1421715794571.00,-2.6948462,-4.0481815,-0.22273682
1421715794589.00,-2.26015,-3.5557058,0.048798524
1421715794609.00,-0.9380992,-4.968917,-0.2505789
1421715794630.00,0.57031405,-7.358398,-0.58812696
1421715794651.00,2.5493486,-8.70889,-2.5734484
1421715794669.00,4.052822,-9.956695,-4.025878
1421715794690.00,3.9151084,-10.388697,-4.1787105
1421715794710.00,2.5938063,-9.913585,-3.9281313
1421715794843.00,0.066012725,-10.656489,-4.500092
1421715794844.00,-2.8181896,-10.138717,-5.0455575
1421715794845.00,-3.5320551,-9.20406,-3.5884876
1421715794846.00,-3.4329612,-9.121283,-3.1669643
1421715794848.00,-2.4740553,-9.2907295,-4.4978466
1421715794848.00,-1.2445121,-9.501791,-5.1780324
1421715794850.00,-1.0985656,-10.976225,-7.803572
1421715794869.00,-0.70144135,-12.159514,-8.75185
1421715794889.00,-1.3232483,-11.341615,-0.52091676
1421715794914.00,-2.5258474,-12.748838,6.870862
1421715794929.00,-1.8688637,-18.45647,-0.5414241
1421715794956.00,5.4365444,-15.091467,-6.7653313
1421715794969.00,0.751138,-8.375533,6.491401
1421715794989.00,-1.1138338,-7.370972,7.295529
1421715795009.00,-1.5862514,-10.595716,5.375771
1421715795080.00,-1.7157321,-13.19521,1.5778688
1421715795081.00,2.4978557,-14.246175,-4.365372
1421715795082.00,3.5042129,-11.619138,-2.4851322
1421715795092.00,2.011966,-9.106014,1.9082319
1421715795109.00,1.5438895,-7.870034,1.576821
1421715795129.00,0.46523255,-8.323591,-0.38185593
1421715795149.00,-0.09610016,-9.037007,-1.305585
1421715795170.00,-0.07140152,-8.494386,-1.8130298
1421715795189.00,0.6345305,-7.9882884,-1.5500267
1421715795209.00,1.5151492,-8.670569,-1.2278966
1421715795230.00,2.0073256,-8.943003,-1.8041981
1421715795249.00,1.6564554,-9.222622,-2.981051
1421715795269.00,0.8750803,-9.107511,-2.4777975
1421715795289.00,0.5849835,-8.507709,-2.0374131
1421715795311.00,1.1693683,-7.9587994,-2.8505223
1421715795329.00,1.4259348,-8.509504,-4.169729
1421715795349.00,0.49801436,-8.330028,-1.5283219
1421715795369.00,-0.6408174,-7.4619827,1.1124866
1421715795420.00,0.14355148,-7.382049,-0.085621946
1421715795422.00,1.7413288,-7.8188405,-2.4935148
1421715795429.00,1.6495697,-7.9475727,-2.3071523
1421715795450.00,0.43050477,-8.453072,1.3052857
1421715795470.00,-0.23037094,-8.55471,-0.3984714
1421715795489.00,0.060923308,-8.678653,-1.9353255
1421715795513.00,0.1978885,-8.806487,-1.1505075
1421715795543.00,0.6933582,-9.0004835,-0.05583389
1421715795554.00,0.93794954,-8.796906,-1.8880239
1421715795569.00,0.27048752,-9.029523,-1.7838405
1421715795589.00,1.5169455,-9.6847105,-2.0118165
1421715795610.00,2.7433453,-10.042316,-2.6165588
1421715795629.00,2.357747,-10.305769,-1.9455043
1421715795649.00,2.3725662,-9.895622,-1.9818786
1421715795669.00,3.39015,-11.078612,-2.456841
1421715795689.00,4.064947,-16.716188,-5.386249
1421715795751.00,1.5596068,-18.709892,-6.3506937
1421715795752.00,-0.91070616,-14.620397,-3.3006363
1421715795753.00,-1.3994398,-10.125993,-0.26749375
1421715795769.00,-2.3939717,-7.781718,0.6399193
1421715795789.00,-3.0515542,-7.8674893,-1.8037491
1421715795810.00,-1.6974701,-10.352323,-4.4493475
1421715795829.00,-0.07694,-11.397898,-3.7702098
1421715795849.00,-0.6078859,-9.798025,-1.5043716
1421715795872.00,-0.773741,-7.965985,-0.71700895
1421715795894.00,-1.5236815,-6.2174706,-1.1654763
1421715795909.00,-2.3531067,-5.4763618,-1.6146922
1421715795930.00,-2.8060648,-5.415888,-1.6640896
1421715795949.00,-2.9325516,-5.379214,-1.5621514
1421715795969.00,-3.218008,-4.9361353,-0.9289682
1421715795990.00,-3.0543983,-5.1768346,0.038170625
1421715796009.00,-2.4233108,-5.898783,0.50040936
1421715796029.00,-0.6950047,-7.9631405,-0.09714798
1421715796150.00,1.3585749,-9.007369,-1.8779947
1421715796151.00,3.5567536,-9.02129,-3.5374439
1421715796151.00,4.873715,-9.110953,-4.478836
1421715796152.00,4.388125,-9.791588,-5.218448
1421715796153.00,1.4651532,-10.323881,-5.2769766
1421715796154.00,-0.4921765,-9.282946,-4.1579037
1421715796171.00,-0.98794556,-7.8439884,-2.3773563
1421715796190.00,-0.70278853,-7.8607535,-2.4023542
1421715796209.00,-0.61791503,-9.147029,-2.887645
1421715796229.00,-0.76475966,-9.461076,-4.6952863
1421715796249.00,-1.9404149,-9.856553,-7.04495
1421715796269.00,-3.4274225,-10.695708,-5.232519
1421715796289.00,-3.2680042,-10.958861,-1.8366807
1421715796309.00,-0.12768447,-11.33413,1.6480728
1421715796332.00,2.3778052,-13.057946,1.7732126
1421715796433.00,3.475323,-17.46059,-4.208798
1421715796434.00,3.0151799,-18.01354,-6.553073
1421715796435.00,-2.3084993,-10.838062,3.1856754
1421715796435.00,-4.42884,-8.509654,7.2899904
1421715796436.00,-3.403173,-9.810898,6.3843737
1421715796469.00,-2.6054819,-13.398937,1.8767972
1421715796479.00,0.25686586,-14.332695,-1.5902929
1421715796489.00,2.6768835,-12.784914,-1.0663824
1421715796514.00,2.1296215,-10.453662,0.8092172
1421715796529.00,0.67075515,-8.750653,1.2928615
1421715796552.00,-0.25177643,-8.288564,2.066902
1421715796569.00,-0.644859,-9.174272,0.79170364
1421715796589.00,-0.7605684,-9.60328,0.20447479
1421715796609.00,-0.601599,-9.293125,0.5957611
1421715796629.00,-0.02215393,-8.500972,1.4052777
1421715796649.00,0.93660235,-8.167914,1.1011102
1421715796669.00,1.547033,-8.533006,0.27378067
1421715796785.00,1.5920892,-9.330547,-1.0023156
1421715796787.00,1.4512322,-9.4474535,-1.8053956
1421715796788.00,1.4715898,-9.576186,-1.5184424
1421715796790.00,1.2823833,-9.501941,-0.68183213
1421715796791.00,1.8601817,-9.32396,0.23875351
1421715796791.00,2.289938,-9.855954,0.20821701
1421715796813.00,2.3339465,-10.007739,-0.101339266
1421715796832.00,2.2071602,-9.813892,0.05478607
1421715796857.00,1.7521064,-9.712553,0.16495697
1421715796869.00,0.640518,-10.016271,0.7141649
1421715796889.00,-0.7873627,-10.346634,1.0835967
1421715796910.00,-0.74515045,-11.410771,1.6025674
1421715796929.00,-0.16226257,-12.485985,1.1189232
1421715796949.00,0.6592291,-13.387859,-0.8837622
1421715796969.00,0.22453308,-13.086836,-3.1022987
1421715796989.00,-1.1000624,-11.504177,-3.0615835
1421715797010.00,-0.80083466,-10.906769,-1.9447559
1421715797101.00,-0.5019063,-10.9632015,-1.5075151
1421715797102.00,-0.6253995,-10.610086,-1.214724
1421715797103.00,-1.1297008,-10.293494,-1.1490107
1421715797103.00,-2.558779,-10.1012945,0.3900888
1421715797116.00,-4.291875,-10.12764,2.2498214
1421715797129.00,-4.988826,-10.659334,2.343826
1421715797149.00,-4.8364425,-10.231224,1.9983444
1421715797170.00,-4.580924,-10.484048,1.3419594
1421715797191.00,-4.6143045,-10.951825,-1.6067587
1421715797209.00,-1.4250367,-10.538385,-3.23642
1421715797229.00,-0.18351837,-9.53113,-0.3412903
1421715797249.00,-0.44622207,-7.474706,0.522713
1421715797269.00,-0.13861175,-6.618936,-0.1579216
1421715797290.00,0.09520203,-6.83344,-0.16480727
1421715797392.00,0.13471985,-7.1037774,0.082628176
1421715797393.00,-0.25042924,-7.262747,0.21824616
1421715797394.00,-0.86190766,-6.642437,-0.7379654
1421715797395.00,-0.91759187,-5.8305254,-1.5132033
1421715797396.00,-0.7021898,-6.325546,-1.6417859
1421715797462.00,-0.05269043,-7.2250257,-3.3394058
1421715797463.00,1.3087285,-7.8703337,-6.434669
1421715797464.00,1.2156221,-9.48323,-10.58464
1421715797499.00,0.8244855,-10.355466,-10.010583
1421715797501.00,0.5661228,-10.089768,-6.791377
1421715797509.00,0.103434905,-10.202634,-3.5250196
1421715797529.00,0.22543122,-9.764046,-1.9181113
1421715797549.00,-1.0847942,-7.406748,-1.6536113
1421715797569.00,-1.7230668,-8.048014,-3.0407767
1421715797589.00,-0.26240432,-14.316528,-3.5251694
1421715797610.00,-1.9529887,-18.760487,-5.3548145
1421715797629.00,-3.6730618,-12.622651,-5.241201
1421715797649.00,-5.9314156,-5.02505,1.5979271
1421715797717.00,-6.1689715,-4.040548,4.3065443
1421715797719.00,-5.4609437,-4.527934,4.6503797
1421715797720.00,-3.7724552,-8.26656,3.9636075
1421715797729.00,-0.8798703,-12.779974,4.1802073
1421715797749.00,4.8746133,-15.255825,1.6543597
1421715797770.00,7.825577,-11.197016,-4.55892
1421715797790.00,2.4393275,-9.426198,0.06316864
1421715797809.00,-1.3078303,-9.284293,1.7387842
1421715797830.00,-1.8414706,-9.729168,0.59007293
1421715797849.00,-1.678759,-9.835298,-0.27348128
1421715797869.00,-1.4361136,-9.810598,-0.33620086
1421715797890.00,-1.3467494,-9.418264,0.1818718
1421715797909.00,-0.97881454,-8.995244,1.101709
1421715797929.00,-0.30162278,-9.023386,2.2845492
1421715797949.00,0.26824218,-9.432036,2.0507355
1421715797969.00,0.4709207,-9.605525,1.5750247
1421715798029.00,0.5216652,-9.693243,1.047372
1421715798030.00,0.36553985,-9.683213,0.9503737
1421715798031.00,0.31524444,-9.685609,1.0000703
1421715798052.00,0.49561936,-9.523196,0.85651886
1421715798069.00,0.61626846,-9.483829,0.71341646
1421715798089.00,0.6756949,-9.220226,0.7674541
1421715798109.00,1.137335,-8.997939,1.1081456
1421715798129.00,1.344055,-9.500743,1.0735675
1421715798149.00,1.488804,-9.9589405,0.5752537
1421715798171.00,1.4913487,-9.820478,0.2335144
1421715798189.00,0.83975375,-9.904304,-0.54247195
1421715798213.00,-0.17034577,-9.557924,-0.6965016
1421715798229.00,-0.32542327,-9.47814,-0.21644989
1421715798250.00,-0.3382965,-9.291328,-0.040565643
1421715798269.00,0.16360977,-9.514215,0.107925564
1421715798290.00,1.3156142,-10.349328,0.54621416
1421715798363.00,1.9278411,-10.632689,0.14040802
1421715798364.00,2.107318,-11.846215,-0.8545729
1421715798365.00,2.4098387,-14.268478,-2.42361
1421715798376.00,1.0023156,-14.377901,-2.373165
1421715798389.00,-1.0614427,-12.287049,-2.1357586
1421715798410.00,-2.0752845,-10.688374,-3.2870147
1421715798429.00,-2.920876,-10.339748,-2.8821065
1421715798449.00,-4.243226,-11.517948,-1.6625926
1421715798472.00,-4.871021,-12.5760975,-0.5774991
1421715798496.00,-4.615951,-12.796589,2.3444247
1421715798510.00,-3.695665,-11.991115,7.43459
1421715798531.00,-2.6129663,-11.242222,3.4242792
1421715798550.00,0.683329,-11.50268,-2.6192532
1421715798572.00,1.3057348,-10.557845,-1.8438656
1421715798589.00,-0.030087434,-8.543783,-0.51522857
1421715798609.00,-1.3042378,-6.626869,0.3517685
1421715798681.00,-1.9794836,-5.407505,0.6065387
1421715798682.00,-2.2583537,-4.5581713,0.318837
1421715798682.00,-2.1890478,-4.5858636,-0.29937744
1421715798691.00,-1.769171,-4.688101,-0.8202942
1421715798709.00,-1.585952,-4.6571155,-0.73586977
1421715798730.00,-1.368604,-4.0480323,-0.67195266
1421715798749.00,-0.70533323,-4.2032595,-0.45729905
1421715798770.00,0.22258712,-4.5580215,-0.61522067
1421715798789.00,1.2756473,-5.191205,-1.5762222
1421715798809.00,2.113455,-6.264473,-2.7307713
1421715798830.00,2.9879365,-8.583151,-3.326682
1421715798850.00,4.101471,-11.127111,-2.7651997
1421715798870.00,3.9585183,-10.38675,-2.2501209
1421715798892.00,2.37077,-8.688382,-2.738705
1421715798911.00,0.4061055,-9.375604,-3.5601966
1421715798929.00,-1.257984,-10.115066,-2.9668305
1421715798995.00,-1.1774515,-10.6994505,-3.9496865
1421715798996.00,-0.27827132,-10.555599,-5.2615585
1421715798997.00,-0.56881714,-10.153236,-3.974984
1421715799009.00,-0.94528425,-9.611513,-3.3473392
1421715799030.00,-1.393153,-8.398735,-3.3187487
1421715799050.00,-1.9428099,-8.442444,-3.1614258
1421715799069.00,-2.3369403,-10.453362,-2.787204
1421715799089.00,-2.3463707,-12.933405,-1.2659175
1421715799109.00,-0.9861493,-14.087505,-0.34682876
1421715799132.00,0.7936496,-18.535057,-6.085745
1421715799153.00,3.275339,-15.622562,-2.961741
1421715799176.00,-1.0065069,-8.334968,6.367309
1421715799189.00,-1.956731,-7.4884777,7.0687504
1421715799209.00,-1.3647121,-11.428434,5.5332437
1421715799233.00,-1.108894,-13.4412985,1.8553917
1421715799250.00,2.460134,-13.376334,-4.04893
1421715799270.00,3.9929466,-10.1227,-2.6759853
1421715799289.00,2.1791685,-8.491242,0.24533981
1421715799364.00,0.4857399,-8.033494,0.1685495
1421715799365.00,-0.5480104,-8.354278,0.019758912
1421715799367.00,-0.7765851,-8.279732,0.22857468
1421715799376.00,-0.41942778,-8.6771555,-0.46388534
1421715799390.00,0.6644682,-9.049582,-1.3665084
1421715799410.00,1.3287867,-9.1748705,-2.6214986
1421715799429.00,1.7095948,-8.919053,-3.2419584
1421715799450.00,1.5938855,-8.582253,-2.158212
1421715799470.00,1.2795392,-8.662786,-1.2711567
1421715799489.00,0.89498883,-8.0983095,-1.2355307
1421715799510.00,0.7478449,-7.898924,-0.89618635
1421715799529.00,0.7753876,-8.441396,-1.6543597
1421715799550.00,1.3995895,-9.110504,-4.24143
1421715799569.00,1.4250367,-9.142538,-3.862867
1421715799589.00,0.47930327,-7.339238,0.3221301
1421715799653.00,-0.046403505,-7.4485106,0.3742218
1421715799655.00,0.2309697,-8.028705,-0.85397416
1421715799656.00,1.4224919,-8.503667,-1.8300943
1421715799669.00,1.6346009,-8.57402,-0.3278183
1421715799689.00,0.7050339,-8.83852,-0.8255333
1421715799710.00,0.18157242,-8.575218,0.75173676
1421715799730.00,0.9957294,-8.020621,-0.6610254
1421715799751.00,1.7690213,-8.844658,-1.0532098
1421715799769.00,1.5837066,-8.145012,0.25417146
1421715799790.00,2.0718415,-8.750354,-0.68916684
1421715799816.00,3.4655933,-11.845168,-3.2105236
1421715799830.00,2.9960198,-12.444222,-3.394641
1421715799849.00,2.2643414,-13.633649,-4.3665695
1421715799869.00,2.0619621,-18.392403,-6.828201
1421715799890.00,-0.30326936,-19.329155,-6.2291465
1421715799909.00,-2.2393432,-14.0388565,-2.6899064
1421715799974.00,-2.652634,-10.405461,-1.5006294
1421715799975.00,-2.4306455,-8.344098,-0.8333171
1421715799976.00,-2.6858647,-8.012688,-2.9535081
1421715799989.00,-1.3096266,-10.5675745,-3.7929626
1421715800010.00,-0.32422578,-11.372601,-3.4440382
1421715800029.00,-1.0952724,-8.78568,-1.8459613
1421715800050.00,-1.0346484,-6.8042507,-1.2496015
1421715800070.00,-1.5106586,-5.6001544,-1.5428417
1421715800089.00,-2.0013382,-4.9470625,-1.8543439
1421715800109.00,-2.0448976,-4.9904723,-1.7500108
1421715800130.00,-1.9791843,-4.7786627,-1.6443306
1421715800149.00,-2.2191353,-4.9629297,-1.7387842
1421715800170.00,-1.8366807,-5.511389,-1.3792319
1421715800190.00,-0.95441526,-5.9098606,-1.0192305
1421715800210.00,0.003742218,-6.447692,-1.0124946
1421715800231.00,1.6775615,-7.0070786,-1.2560381
1421715800250.00,3.131937,-8.828192,-2.0196002
1421715800310.00,3.7953575,-10.890004,-2.221231
1421715800311.00,2.8759694,-10.84854,-3.3835638
1421715800313.00,2.6105714,-10.078242,-4.5412564
1421715800329.00,1.6567547,-10.303973,-4.9750543
1421715800350.00,0.11645783,-10.061776,-4.714596
1421715800369.00,-0.81640226,-9.652678,-3.6679723
1421715800389.00,-1.1545491,-9.350904,-3.4804125
1421715800409.00,-0.27887008,-9.767339,-3.1211596
1421715800429.00,0.49427214,-10.182725,-2.832859
1421715800450.00,0.4017645,-9.578133,-2.722239
1421715800470.00,0.5641768,-8.556058,-2.956502
1421715800490.00,0.44233018,-7.6658587,-3.5533109
1421715800509.00,0.04685257,-6.958879,-2.860701
1421715800529.00,-0.4697232,-7.1557198,-1.0234218
1421715800549.00,-0.47211823,-9.185648,0.103135526
1421715800570.00,0.2971321,-11.009456,-0.54786074
1421715800589.00,1.8359321,-12.636572,-1.3566289
1421715800646.00,1.9703526,-15.9701395,-1.0988649
1421715800647.00,3.8511915,-19.089952,-14.920373
1421715800660.00,-0.84155,-12.511133,2.155817
1421715800670.00,-3.4117053,-7.551347,7.373816
1421715800690.00,-1.9264939,-7.0033364,6.3411136
1421715800709.00,-0.42825943,-11.534414,4.027525
1421715800733.00,0.63243484,-13.062586,1.3510904
1421715800752.00,1.9507434,-12.681329,-1.1796968
1421715800771.00,3.3715887,-10.900183,-1.8744022
1421715800801.00,1.4434483,-9.073232,-0.69575316
1421715800810.00,-0.2733316,-8.498727,0.037871245
1421715800829.00,-0.655936,-8.622669,0.4712201
1421715800849.00,-0.7936496,-8.601862,0.67210233
1421715800870.00,-0.95366687,-8.462952,0.37871248
1421715800890.00,0.003592529,-8.488997,-0.92058563
1421715800909.00,1.3980926,-8.332422,-3.0735586
1421715800977.00,2.5682094,-7.826175,-4.0817122
1421715800978.00,2.9226723,-8.257877,-2.7440937
1421715800978.00,2.3346949,-8.947344,-1.3516891
1421715800994.00,1.1228151,-8.18468,-1.3421091
1421715801016.00,0.40266266,-7.6399627,-1.9622694
1421715801029.00,0.01751358,-6.95364,-2.7393036
1421715801052.00,0.4098477,-8.355774,-3.6082466
1421715801070.00,0.24399261,-9.038205,-1.1241623
1421715801089.00,-0.038320314,-7.693701,-0.1776805
1421715801111.00,1.1235635,-7.389384,-0.837209
1421715801130.00,1.6492703,-8.047864,0.1751358
1421715801149.00,1.6182847,-9.29028,0.31943572
1421715801169.00,1.8131795,-9.402099,-1.0229727
1421715801190.00,1.4849122,-9.225316,-0.98105985
1421715801211.00,1.2879218,-9.296867,-0.36718643
1421715801232.00,1.0832973,-8.864416,-0.6123766
1421715801304.00,1.5723304,-8.0685215,-0.5894742
1421715801305.00,1.8589842,-8.576415,-0.39068756
1421715801306.00,1.6578026,-10.063273,-0.8912466
1421715801317.00,2.3763084,-11.962673,-3.677852
1421715801330.00,3.4516723,-16.28239,-5.6688614
1421715801350.00,1.9359242,-19.132463,-8.1441145
1421715801370.00,-1.669179,-18.868711,-7.813751
1421715801390.00,-2.6126668,-14.373859,-4.1294627
1421715801413.00,-1.9287392,-10.137369,-2.5551865
1421715801449.00,-0.82972455,-8.46834,-1.4018348
1421715801450.00,-1.5618521,-7.8342586,-1.8724562
1421715801470.00,-1.1042536,-9.6742325,-3.0638287
1421715801489.00,-0.8861572,-10.206526,-3.197351
1421715801510.00,-0.40011796,-8.650361,-1.6643889
1421715801530.00,-0.36464173,-6.2252545,-1.2775933
1421715801610.00,-1.1737093,-4.618496,-1.3738431
1421715801611.00,-2.349065,-3.8715491,-1.5940351
1421715801612.00,-2.8392956,-4.646338,-2.0814216
1421715801613.00,-2.6173072,-5.506,-2.1797671
1421715801646.00,-2.1534219,-5.848338,-2.1664448
1421715801650.00,-1.7880318,-5.8535776,-2.2020707
1421715801669.00,-1.1042536,-6.182144,-1.785038
1421715801691.00,-0.1751358,-6.4012885,-1.7389339
1421715801712.00,0.33380586,-6.4205985,-1.6877403
1421715801729.00,1.1317964,-6.831943,-1.4768289
1421715801753.00,2.3324497,-8.21836,-1.7621356
1421715801770.00,2.849774,-9.926308,-2.6192532
1421715801789.00,2.3188279,-10.082434,-2.8327093
1421715801810.00,1.9953506,-9.195977,-2.5915608
1421715801832.00,1.4079721,-9.197773,-3.3434472
1421715801853.00,0.49561936,-9.541758,-4.1802073
1421715801872.00,0.06197113,-9.650432,-4.6144543
1421715801947.00,-0.01287323,-9.663904,-5.001699
1421715801947.00,0.017214203,-9.407786,-5.0576825
1421715801949.00,0.036973115,-9.575737,-4.301904
1421715801951.00,-0.41044647,-9.645193,-2.6460476
1421715801969.00,-1.5401473,-8.685239,-2.1978796
1421715801990.00,-1.7046552,-7.3693256,-2.5969496
1421715802009.00,-0.7247928,-8.133038,-4.3517504
1421715802029.00,0.46598098,-9.704619,-2.9948223
1421715802051.00,1.2058923,-12.578493,1.2674145
1421715802071.00,2.3346949,-16.814983,-1.4624588
1421715802089.00,9.030272,-19.204914,-14.699283
1421715802110.00,-0.41344026,-11.683654,6.102809
1421715802129.00,-5.015171,-6.3487477,7.551347
1421715802153.00,-2.6955945,-5.5992565,7.782766
1421715802169.00,-1.3900094,-11.279644,6.142776
1421715802191.00,0.25701553,-16.015196,-0.17618363
1421715802263.00,3.3013847,-13.611046,-6.5295715
1421715802263.00,3.5750158,-11.101066,-2.978506
1421715802264.00,0.8069719,-8.42972,0.9020242
1421715802279.00,-0.7731422,-7.983498,1.179098
1421715802289.00,-0.9449849,-8.841813,0.29788056
1421715802310.00,0.29309052,-9.025631,-0.65399003
1421715802332.00,1.081501,-9.141041,-1.015638
1421715802349.00,0.5673202,-8.845855,-1.4654526
1421715802370.00,0.76386154,-8.264614,-3.04871
1421715802392.00,1.5284715,-8.092472,-2.6586213
1421715802410.00,1.5438895,-8.46355,-1.5233821
1421715802430.00,1.7911752,-8.5154915,-1.7003142
1421715802450.00,2.0010388,-8.759035,-2.3812482
1421715802470.00,1.327739,-8.346344,-1.6504679
1421715802489.00,0.4629872,-7.888895,-1.5266752
1421715802510.00,-0.104782104,-7.382498,-1.5441889
1421715802530.00,0.18127304,-7.7733355,-1.7982106
1421715802599.00,0.6816824,-8.510103,-1.6868422
1421715802600.00,0.7708969,-8.278685,-1.698967
1421715802601.00,1.1686199,-7.845485,-1.2618759
1421715802611.00,1.1463162,-8.268655,-0.39532793
1421715802631.00,1.0952724,-9.031469,-0.624651
1421715802649.00,1.169967,-9.176068,-0.82044387
1421715802670.00,1.432072,-8.96396,-2.0619621
1421715802690.00,1.3636643,-8.980425,-1.1096425
1421715802709.00,0.907413,-8.523575,-0.08771759
1421715802729.00,1.3331277,-7.968529,-0.9889934
1421715802750.00,2.0667522,-8.196805,-1.6042141
1421715802770.00,3.05365,-9.2813,-1.8050963
1421715802790.00,3.592679,-11.062595,-2.2445824
1421715802810.00,3.3367112,-11.949351,-1.7103434
1421715802830.00,3.1087353,-16.617245,-3.594026
1421715802852.00,1.7501606,-18.69642,-6.403384
1421715802869.00,-0.4924759,-15.644118,-5.2587147
1421715802934.00,-1.2524456,-12.355307,-3.677253
1421715802935.00,-1.0759625,-10.46399,-2.4849825
1421715802936.00,-1.489253,-9.094638,-0.8301737
1421715802952.00,-2.2074594,-8.601712,-1.5617024
1421715802969.00,-0.8943901,-9.884396,-3.064278
1421715802992.00,-0.10627899,-10.628049,-3.7736526
1421715803009.00,-0.07304809,-9.342223,-2.0886068
1421715803030.00,-0.2971321,-7.3317537,-0.8710387
1421715803050.00,-1.1910732,-5.4569025,-1.3268409
1421715803070.00,-2.36104,-4.7081594,-1.859583
1421715803090.00,-2.8577073,-5.4799542,-2.0790267
1421715803110.00,-2.510579,-6.9623218,-2.3104453
1421715803130.00,-1.4174025,-7.4010596,-2.3646326
1421715803150.00,-0.9038205,-7.39597,-2.4177723
1421715803171.00,-0.2996768,-6.904093,-2.1845572
1421715803192.00,0.104632415,-6.755452,-1.563349
1421715803262.00,0.3252736,-6.579568,-1.6860938
1421715803263.00,0.51717454,-6.8196683,-1.8633252
1421715803264.00,1.0660831,-7.5814342,-1.807641
1421715803275.00,1.920656,-9.520502,-1.6588504
1421715803290.00,2.1656964,-10.269095,-1.2243041
1421715803310.00,1.837429,-9.398356,-1.5569124
1421715803330.00,1.1749067,-8.5734215,-1.7639319
1421715803350.00,1.1361374,-8.816516,-1.988465
1421715803370.00,0.8758287,-9.566157,-3.0114377
1421715803390.00,0.08637039,-9.663156,-3.7582347
1421715803410.00,-1.0705737,-9.635912,-5.0263977
1421715803430.00,-1.463806,-8.683891,-4.78959
1421715803450.00,-0.31240037,-8.940309,-3.4025743
1421715803472.00,0.06197113,-9.310489,-2.7008336
1421715803493.00,-0.03622467,-8.642578,-1.3223501
1421715803517.00,-0.19414628,-7.8415933,-0.67075515
1421715803530.00,-0.93196195,-7.754175,-1.72157
1421715803593.00,-1.5010785,-8.402178,-4.538412
1421715803594.00,-0.9159453,-9.033415,-2.8990214
1421715803595.00,0.59920394,-10.421329,0.07454498
1421715803610.00,2.5950036,-12.269535,-0.44741958
1421715803633.00,2.219285,-16.13285,-1.9522403
1421715803649.00,4.052972,-19.112106,-13.205239
1421715803670.00,0.7544311,-14.602883,0.95366687
1421715803690.00,-2.5572822,-7.934999,7.1115613
1421715803712.00,-1.7036073,-6.8051486,6.9816318
1421715803733.00,-0.5598358,-11.569441,4.4791355
1421715803751.00,1.0922786,-13.971945,0.64006895
1421715803770.00,3.2528856,-12.782219,-3.2272887
1421715803790.00,3.3317716,-11.21393,-2.2338047
1421715803811.00,-0.4098477,-8.518336,0.5177733
1421715803831.00,-1.2009526,-7.822134,1.0196795
1421715803898.00,-0.7047345,-8.554261,-0.34024248
1421715803899.00,0.020657044,-8.406818,-0.45969406
1421715803900.00,0.7047345,-8.413554,-0.8184979
1421715803909.00,1.262774,-8.822503,-1.9449055
1421715803931.00,1.6482224,-8.85304,-2.379901
1421715803950.00,1.9263442,-8.715925,-2.1613555
1421715803970.00,2.1474345,-8.585996,-1.859583
1421715803991.00,1.6848962,-8.494386,-2.0505857
1421715804009.00,1.0433304,-8.385113,-1.8100361
1421715804030.00,0.5553452,-9.167087,-1.7802479
1421715804050.00,1.0371932,-9.230704,-2.0685484
1421715804070.00,1.267564,-8.4255295,-1.6256195
1421715804090.00,0.7924521,-8.18947,-1.2208612
1421715804110.00,0.86639833,-8.564739,-1.5717316
1421715804130.00,1.1750565,-8.582253,-1.1732602
1421715804150.00,0.5815407,-8.445437,-0.49936157
1421715804219.00,0.5240602,-8.620274,-1.419049
1421715804220.00,0.3359015,-8.911868,-1.0201286
1421715804221.00,0.3851491,-8.732092,-0.6993457
1421715804231.00,0.5686675,-8.561895,-1.9086809
1421715804250.00,0.30476624,-8.612041,-0.95695996
1421715804270.00,0.3291655,-8.685389,-1.199306
1421715804290.00,1.348845,-9.052575,-1.8372793
1421715804310.00,1.4530284,-8.826994,-1.540746
1421715804330.00,1.6377443,-8.672067,-0.8837622
1421715804350.00,2.0594175,-9.153615,-1.1650273
1421715804370.00,2.0011885,-9.277707,-1.4437478
1421715804390.00,2.3243666,-11.743529,-3.486849
1421715804410.00,2.0342698,-17.111517,-3.4914894
1421715804430.00,-0.8981323,-18.558407,-6.240373
1421715804450.00,-3.1322365,-15.874189,-5.5559964
1421715804470.00,-2.5598269,-12.873529,-4.5714936
1421715804490.00,-1.3838723,-10.940001,-3.1789393
1421715804511.00,-1.233435,-9.221125,-0.9855505
1421715804576.00,-2.0386107,-7.9366455,-1.6851956
1421715804577.00,-1.2989987,-8.807684,-3.1111305
1421715804578.00,-0.986299,-9.823322,-3.74611
1421715804590.00,-0.6593788,-8.884325,-2.6884093
1421715804611.00,-0.25836274,-7.7842627,-1.4169534
1421715804630.00,-0.67704207,-6.3098288,-1.4582676
1421715804654.00,-1.5744259,-5.5670733,-2.2757177
1421715804675.00,-2.100881,-6.288573,-2.760709
1421715804690.00,-2.2632935,-6.7211733,-2.961741
1421715804710.00,-2.0540285,-7.013216,-3.1328351
1421715804730.00,-1.4211447,-7.0174074,-3.1229558
1421715804750.00,-1.1328442,-6.691535,-2.5041425
1421715804770.00,-0.7325766,-6.291567,-1.921105
1421715804790.00,-0.44487488,-6.050119,-1.5489789
1421715804810.00,-0.47181883,-5.984705,-1.4507831
1421715804831.00,-0.69739974,-6.1457696,-1.667233
1421715804899.00,-0.1300795,-7.2823563,-1.8842816
1421715804900.00,1.2153227,-9.495055,-2.039359
1421715804901.00,2.3084993,-10.918594,-2.6985884
1421715804911.00,3.1192136,-10.319241,-2.9976664
1421715804930.00,2.9618907,-9.28579,-3.3133597
1421715804950.00,1.7809964,-8.855136,-3.1606774
1421715804972.00,0.46687913,-8.747808,-2.862198
1421715805004.00,-0.7481442,-8.710386,-2.9536579
1421715805011.00,-1.515748,-8.883876,-4.9735575
1421715805030.00,-0.8273296,-8.954379,-5.003645
1421715805050.00,0.121996306,-9.24223,-3.1611264
1421715805070.00,0.20282821,-8.956775,-2.1710851
1421715805092.00,-0.29383895,-8.112829,-2.547253
1421715805112.00,-0.83346677,-7.3896832,-2.8931837
1421715805132.00,-0.8137079,-7.9650865,-2.8548632
1421715805151.00,-0.4155359,-9.547746,-1.3865666
1421715805231.00,-0.023800507,-11.615994,1.789379
1421715805231.00,0.61881316,-13.513149,1.7190253
1421715805232.00,1.7631835,-17.722696,-6.0833497
1421715805233.00,3.7347336,-18.064285,-9.583221
1421715805250.00,-2.8177404,-10.139016,4.721781
1421715805270.00,-3.7723055,-6.173911,6.76593
1421715805290.00,-1.1889775,-7.805518,6.8883758
1421715805310.00,1.629212,-14.055621,2.5975485
1421715805332.00,4.5267367,-15.433207,-2.6047335
1421715805350.00,2.9355454,-12.769047,-1.859583
1421715805372.00,0.8985814,-10.730137,0.4682263
1421715805390.00,-0.25985962,-7.8294687,0.59261763
1421715805410.00,-0.96040285,-7.325916,-0.0597258
1421715805430.00,-0.9689351,-8.212372,-1.1231145
1421715805450.00,-0.44367737,-8.590037,-0.9066646
1421715805471.00,-0.19564316,-8.677305,-0.16839981
1421715805545.00,1.0053095,-8.3917,-0.3332071
1421715805546.00,1.7995578,-7.3703732,-1.4533278
1421715805547.00,2.1983285,-6.7675767,-2.355801
1421715805556.00,2.186054,-8.245304,-2.9611423
1421715805571.00,1.4813195,-9.166937,-1.8381774
1421715805590.00,1.5347584,-8.298443,-0.852627
1421715805610.00,0.31105316,-7.0329747,-0.5324428
1421715805631.00,-0.37452117,-6.175558,-0.42376876
1421715805650.00,0.5536986,-8.287815,-0.58872575
1421715805670.00,1.7905765,-9.827963,-1.5396981
1421715805691.00,1.4765296,-9.358539,-0.6021977
1421715805710.00,0.9145981,-8.746612,0.524659
1421715805730.00,0.771346,-7.7740836,-0.19938537
1421715805751.00,0.7390132,-8.203391,-0.3676355
1421715805771.00,0.8955876,-9.08416,-1.004561
1421715805792.00,1.2949572,-9.457932,-1.382525
1421715805862.00,0.85382444,-8.364905,-0.5492079
1421715805863.00,0.90277267,-7.6574764,-0.05748047
1421715805864.00,1.698967,-11.0266695,-2.1871018
1421715805875.00,3.6777022,-16.293766,-3.3654516
1421715805890.00,3.3097672,-19.123932,-4.4357257
1421715805912.00,-0.5575905,-18.988462,-5.946534
1421715805930.00,-2.8412416,-15.6429205,-3.4482293
1421715805958.00,-2.5795858,-12.512929,-1.6621436
1421715805971.00,-2.6839187,-10.450667,-0.945434
1421715805990.00,-2.581831,-10.613978,-0.88091815
1421715806010.00,-1.8550923,-12.382999,-3.2913556
1421715806031.00,-0.7854167,-12.046799,-2.6349707
1421715806050.00,-0.63333297,-9.885293,-0.78945833
1421715806070.00,-0.46343628,-7.859556,-0.1432521
1421715806090.00,-1.2871733,-6.606961,0.14295273
1421715806110.00,-2.6949956,-5.662425,0.1434018
1421715806130.00,-3.5822008,-5.739365,-0.37212616
1421715806210.00,-3.566184,-6.47748,-0.4778064
1421715806211.00,-3.0129347,-6.993008,-0.38963974
1421715806212.00,-1.8227595,-6.8464627,-0.46613067
1421715806213.00,-1.0404863,-6.478827,-0.99557966
1421715806230.00,-1.2364289,-6.5720835,-1.1470647
1421715806250.00,-1.2859758,-6.8820887,-1.4943424
1421715806271.00,-0.051941987,-8.650211,-2.6197023
1421715806292.00,1.3953983,-9.8342495,-5.4718714
1421715806330.00,2.339036,-10.882969,-6.118676
1421715806331.00,3.0349388,-11.063194,-6.640491
1421715806351.00,3.464246,-10.478809,-7.693102
1421715806370.00,3.649411,-10.165661,-7.3539076
1421715806390.00,1.7115408,-9.59355,-6.255941
1421715806410.00,-0.24339385,-9.312285,-4.790638
1421715806430.00,-1.739383,-9.280102,-2.9072542
1421715806508.00,-1.8570383,-8.87699,-2.2499712
1421715806510.00,-2.0130138,-8.546328,-2.7892997
1421715806510.00,-2.5806336,-9.971963,-3.3097672
1421715806511.00,-2.342928,-15.301929,-4.8156357
1421715806530.00,-1.3546829,-17.502205,-5.843249
1421715806551.00,-3.101251,-10.976524,-3.1864238
1421715806570.00,-4.0911427,-4.636758,1.9461031
1421715806590.00,-4.2430763,-3.7259018,3.9565723
1421715806611.00,-4.4954515,-5.2423983,4.7671366
1421715806630.00,-2.9045599,-9.3050995,5.4106483
1421715806650.00,0.5629793,-13.096715,5.358856
1421715806670.00,4.979695,-13.693674,0.8921448
1421715806690.00,5.486541,-10.366543,-3.4203873
1421715806710.00,1.2284954,-9.426048,-0.17827927
1421715806730.00,-1.3591735,-9.2907295,1.6729212
1421715806750.00,-2.287992,-9.6178,0.81730044
1421715806826.00,-1.8803897,-9.829908,-0.66970736
1421715806830.00,-1.1087444,-9.886491,-0.001646576
1421715806831.00,-0.6297405,-9.382489,1.7371376
1421715806832.00,0.022303618,-9.16574,2.9585977
1421715806850.00,0.7301816,-9.162746,2.7268794
1421715806870.00,1.7601897,-9.463321,2.0231926
1421715806890.00,1.9740949,-9.5214,1.3383669
1421715806910.00,1.588347,-9.876761,0.88630694
1421715806931.00,1.1502081,-9.715547,0.6325845
1421715806951.00,1.1418256,-9.7603035,0.95695996
1421715806978.00,0.9888437,-9.574988,0.6752458
1421715806992.00,1.0512639,-9.311387,0.12843293
1421715807010.00,1.065634,-8.83358,0.26315278
1421715807030.00,1.6521144,-8.899593,0.696801
1421715807050.00,2.6985884,-9.661808,1.5217355
1421715807071.00,3.45272,-10.298285,0.4897815
1421715807090.00,3.0451176,-10.129136,-0.1405577
1421715807155.00,1.447939,-9.691446,-0.54860914
1421715807156.00,-0.3266208,-9.216634,-0.63468015
1421715807157.00,-0.71626055,-9.466614,-0.38814285
1421715807170.00,-0.1273851,-9.985585,0.012124786
1421715807190.00,0.9849518,-11.534414,0.44128236
1421715807210.00,2.208657,-13.866265,1.332978
1421715807230.00,0.47286665,-13.451328,0.22318588
1421715807250.00,-2.169738,-11.676619,-0.9479787
1421715807272.00,-3.5540593,-10.567425,-7.090306
1421715807291.00,-3.13538,-10.244546,-5.4304075
1421715807310.00,-2.659819,-11.0862465,1.253194
1421715807330.00,-3.485951,-11.347902,1.9435583
1421715807351.00,-4.940027,-10.496173,0.95890594
1421715807371.00,-5.409451,-9.552685,0.58303756
1421715807390.00,-4.0624022,-10.556048,2.3420298
1421715807410.00,-2.501598,-10.665172,2.5239015
1421715807485.00,1.1428734,-11.224409,-3.6928208
1421715807486.00,2.9729676,-10.197844,-0.5854326
1421715807487.00,1.9538869,-8.4875,0.8997789
1421715807498.00,1.1075468,-7.611372,0.76535845
1421715807510.00,0.9698332,-7.4803944,0.10717712
1421715807530.00,0.70144135,-7.1805677,-0.33979338
1421715807550.00,-0.04954697,-6.794371,-0.55145323
1421715807570.00,-1.2766951,-6.2685146,-0.89364165
1421715807591.00,-2.2444327,-6.268964,-1.1843371
1421715807610.00,-2.3574476,-6.3896127,-1.4561719
1421715807630.00,-1.7411792,-6.681356,-1.786984
1421715807650.00,-0.7222481,-7.173682,-2.7282267
1421715807670.00,0.7623646,-9.014704,-4.486021
1421715807690.00,1.5388,-10.425071,-6.7085996
1421715807710.00,2.5041425,-11.189082,-6.926097
1421715807730.00,3.53445,-11.284285,-5.283862
1421715807751.00,3.833528,-11.352093,-3.885021
1421715807807.00,3.6793487,-10.508148,-3.2563283
1421715807808.00,1.5486795,-9.937386,-4.0603065
1421715807830.00,-1.8019528,-11.45957,-2.3426285
1421715807832.00,-5.0485516,-14.679823,-1.3736933
1421715807850.00,-5.151088,-14.878759,-3.268154
1421715807870.00,-3.6306999,-9.548943,-2.0794756
1421715807890.00,-4.700076,-4.696334,1.866768
1421715807910.00,-4.4897633,-3.824397,3.8957987
1421715807931.00,-3.575315,-6.1189756,5.175787
1421715807950.00,-1.9410137,-10.303225,5.9561143
1421715807970.00,1.9640657,-14.303206,3.8384678
1421715807990.00,6.0992165,-13.179044,-4.3204656
1421715808010.00,2.8868966,-10.02645,-1.1530522
1421715808031.00,-0.4209247,-9.339079,1.4486874
1421715808050.00,-1.3895603,-8.93971,2.0300784
1421715808120.00,-1.7892293,-9.30046,0.29368928
1421715808120.00,-1.0898836,-9.73291,-0.1498384
1421715808121.00,-0.6249504,-9.663305,0.36449203
1421715808133.00,-0.470771,-9.124725,1.3473482
1421715808151.00,-0.43454635,-9.212892,1.9362236
1421715808170.00,0.21300705,-9.41557,2.1778212
1421715808190.00,0.8930429,-9.476494,1.7419276
1421715808211.00,1.0482701,-9.811796,0.6312373
1421715808231.00,0.7813751,-9.709409,0.54756135
1421715808254.00,0.52795213,-9.853859,0.30461654
1421715808277.00,0.36988083,-9.427246,0.27901977
1421715808293.00,0.20896545,-8.93941,0.30341902
1421715808310.00,0.43574387,-9.35794,-0.16989669
1421715808330.00,0.732876,-9.483379,0.03487747
1421715808350.00,1.1852353,-9.575288,0.49531996
1421715808370.00,1.1623329,-9.591904,0.28096572
1421715808392.00,0.98135924,-9.74279,-0.25716522
1421715808463.00,0.42421782,-9.779913,-0.6328839
1421715808464.00,0.5492079,-9.962982,-0.41149428
1421715808464.00,0.6956035,-9.540112,-0.05269043
1421715808475.00,0.825683,-9.316476,-0.2230362
1421715808490.00,0.5123845,-10.055939,0.4709207
1421715808511.00,0.40386018,-12.003987,1.1159294
1421715808531.00,0.15417938,-14.291531,-1.3346246
1421715808550.00,1.075214,-15.40282,-2.4848328
1421715808570.00,0.2974315,-13.525424,-0.9979747
1421715808603.00,-0.7072792,-11.392959,-1.9255958
1421715808614.00,-1.4147081,-10.825189,-3.2272887
1421715808630.00,-3.3421001,-11.258687,-1.6831
1421715808650.00,-4.700076,-11.311976,-1.1154803
1421715808670.00,-5.231022,-11.198513,0.5692662
1421715808690.00,-4.6921425,-11.251652,3.3684454
1421715808712.00,-3.8139188,-10.399025,6.1709175
1421715808730.00,-1.6383431,-10.143506,-0.3023712
1421715808799.00,1.5528708,-10.285412,-3.450325
1421715808800.00,1.1144326,-9.292676,-1.5438895
1421715808801.00,-0.22513184,-7.7583666,-0.05254074
1421715808811.00,-1.4941928,-6.4563737,0.7069798
1421715808830.00,-2.2659879,-5.7136183,0.73721695
1421715808850.00,-2.0514839,-5.0249004,0.036973115
1421715808871.00,-1.5813117,-4.8244677,-0.43993515
1421715808890.00,-0.98959213,-4.7157936,-0.77433974
1421715808910.00,-0.59216857,-4.696184,-0.8038284
1421715808930.00,-0.52346146,-4.685706,-1.1045531
1421715808951.00,-0.16540603,-5.374424,-1.7884809
1421715808970.00,0.5815407,-6.24666,-2.4697142
1421715808990.00,1.3554313,-7.358099,-3.2061827
1421715809011.00,2.5228536,-9.673933,-4.0194416
1421715809033.00,3.5091527,-10.713521,-4.2203236
1421715809050.00,2.9047096,-10.236613,-2.9210258
1421715809074.00,0.5644762,-10.047107,-3.0767019
1421715809135.00,-1.1106904,-9.36752,-2.5246499
1421715809135.00,-1.3260924,-7.9680805,-2.2718258
1421715809136.00,-0.49996033,-8.5574045,-2.9460237
1421715809151.00,-0.45774812,-9.716295,-3.2838712
1421715809171.00,-2.334246,-9.434431,-2.0224442
1421715809190.00,-3.5241215,-8.653206,-1.3952485
1421715809210.00,-2.6469457,-7.8594065,-2.9614418
1421715809235.00,-0.85906357,-7.923473,-4.511169
1421715809266.00,0.3026706,-8.311766,-3.6506085
1421715809270.00,0.014519806,-9.338929,-2.1517754
1421715809291.00,-0.4843927,-11.332035,-1.7095948
1421715809310.00,-0.24459137,-12.694352,-1.7181271
1421715809330.00,0.37062928,-14.528039,-1.2454102
1421715809350.00,1.3874648,-18.809586,-6.3345275
1421715809370.00,2.5282426,-15.976577,-3.7872744
1421715809391.00,-0.56567365,-9.591305,5.4121456
1421715809443.00,-1.2144246,-8.07391,5.9992247
1421715809444.00,-0.7825726,-11.499686,4.9322433
1421715809453.00,-0.93106383,-12.884906,2.9388387
1421715809470.00,1.0618918,-12.842993,-1.6137941
1421715809490.00,2.9662316,-11.181897,-3.1225066
1421715809510.00,0.8143066,-9.027428,-0.5682184
1421715809531.00,-0.404908,-8.568481,0.7677534
1421715809550.00,0.09565109,-8.576864,-0.73751634
1421715809570.00,0.7081773,-8.706046,-1.1963123
1421715809591.00,0.32317793,-8.153245,-0.033230897
1421715809613.00,-0.01287323,-8.195457,0.6514453
1421715809630.00,1.1443703,-8.486153,-0.6635701
1421715809650.00,2.1168978,-9.034014,-2.341431
1421715809670.00,1.7488133,-9.18939,-1.9699036
1421715809699.00,1.1099418,-8.890312,-1.1085947
1421715809754.00,0.91609496,-8.779243,-0.8963361
1421715809759.00,1.1135345,-8.624914,-1.5033238
1421715809760.00,1.2976515,-8.600515,-1.9998413
1421715809770.00,0.9741742,-8.451575,-1.3593233
1421715809790.00,0.3156935,-7.896529,-1.0885364
1421715809810.00,0.47870454,-6.7392855,-2.0320244
1421715809830.00,0.59501266,-6.1300526,-0.1977388
1421715809851.00,0.33156052,-8.765023,-0.051941987
1421715809871.00,0.95067304,-9.947115,-1.676813
1421715809891.00,1.6895366,-9.358838,-2.9470716
1421715809911.00,-0.09355545,-7.2232294,-0.50355285
1421715809932.00,-1.3018428,-5.585485,1.7028589
1421715809950.00,-0.7725435,-7.051536,3.1757958
1421715809970.00,1.2126284,-11.818673,-6.0776615
1421715809991.00,2.214944,-11.019335,-4.526138
1421715810010.00,1.0909314,-7.77588,0.085322574
1421715810032.00,1.357527,-6.822812,0.8282277
1421715810093.00,2.5078847,-9.520502,-1.6438816
1421715810094.00,3.5774107,-13.93572,-4.8817983
1421715810095.00,3.6164794,-16.79732,-2.588567
1421715810110.00,0.8887019,-19.189047,-5.451364
1421715810130.00,-3.0463152,-17.668957,-5.88127
1421715810157.00,-2.5969496,-13.596676,-3.7744012
1421715810170.00,-1.0976673,-11.356883,-2.7240353
1421715810190.00,-0.48529083,-10.176588,-0.3769162
1421715810211.00,-1.4807209,-8.198301,0.34608033
1421715810231.00,-2.4533982,-7.885003,-1.941313
1421715810255.00,-0.79260176,-10.637629,-3.794609
1421715810273.00,1.0918295,-11.128608,-2.4295976
1421715810299.00,0.8960367,-8.4851055,-1.4386582
1421715810311.00,0.09669891,-6.7430277,-1.1859838
1421715810332.00,-1.3454022,-6.3198576,-1.2160711
1421715810350.00,-2.7158024,-6.629414,-1.6422349
1421715810418.00,-3.013234,-7.607031,-3.0620325
1421715810419.00,-2.2272184,-7.000343,-3.4452355
1421715810420.00,-1.0141411,-6.0406885,-2.965184
1421715810433.00,-0.67329985,-5.5702167,-1.8461109
1421715810450.00,-1.2506492,-5.5419254,-0.81161225
1421715810470.00,-1.2692107,-5.210215,-0.3595523
1421715810490.00,-1.4497353,-5.0011,-1.3296849
1421715810510.00,-0.8175998,-5.183421,-1.4645544
1421715810532.00,0.6971004,-6.1171794,-1.3367202
1421715810554.00,2.071692,-8.114626,-1.3877641
1421715810570.00,2.7461894,-9.745185,-2.2932312
1421715810590.00,3.4154475,-10.3336115,-2.3117926
1421715810610.00,3.458408,-9.534872,-2.6285338
1421715810630.00,2.3174808,-9.048084,-4.130361
1421715810656.00,0.32422578,-10.481054,-5.3268228
1421715810672.00,-0.1594185,-11.500585,-7.995024
1421715810741.00,-0.86894304,-10.955119,-6.2150755
1421715810742.00,-1.8651215,-9.248966,-3.3741333
1421715810743.00,-2.3415806,-7.654782,-3.5702257
1421715810750.00,-2.4498055,-6.6936307,-4.7568083
1421715810770.00,-2.1525238,-7.680079,-3.0648766
1421715810790.00,-1.5185921,-10.248138,-1.1225157
1421715810810.00,-0.54247195,-14.258749,0.9939331
1421715810831.00,0.37182677,-17.511934,-3.026706
1421715810851.00,5.3075128,-19.299665,-13.070969
1421715810870.00,0.49277526,-11.912977,4.821324
1421715810892.00,-1.6619939,-7.4841366,7.9540095
1421715810911.00,-1.0166858,-8.900192,7.394623
1421715810932.00,0.48903304,-13.985268,2.6792784
1421715810951.00,1.660497,-14.593602,-3.7035983
1421715810971.00,2.4451652,-13.119019,-3.4585578
1421715810991.00,1.1674223,-10.092912,-0.6249504
1421715811010.00,-0.62599826,-8.374635,1.3293855
1421715811076.00,-0.9675879,-7.848928,0.70802766
1421715811077.00,-0.19953507,-8.156388,-0.9982741
1421715811078.00,1.0159373,-8.48735,-0.75398207
1421715811090.00,1.9532881,-8.991352,-0.34143996
1421715811111.00,1.5726297,-9.04524,-1.3629158
1421715811131.00,0.94842774,-8.613388,-2.9750633
1421715811151.00,1.0803035,-8.024513,-3.6417768
1421715811170.00,1.0120454,-7.7736344,-1.8646724
1421715811193.00,0.7243437,-7.8233314,-0.9991722
1421715811215.00,0.8294252,-8.164022,-1.9065852
1421715811230.00,1.0981164,-8.580157,-3.0746064
1421715811251.00,0.7532337,-7.732919,-2.0998335
1421715811270.00,0.29144394,-6.97759,-0.47675857
1421715811290.00,0.45460466,-8.183782,-2.4504044
1421715811311.00,0.21659958,-8.898096,-2.7695408
1421715811330.00,-0.1776805,-8.4045725,-0.7975415
1421715811350.00,0.556842,-7.509584,0.37661684
1421715811430.00,0.35371444,-6.2978535,1.7609382
1421715811431.00,0.3625461,-9.301806,-0.5867798
1421715811432.00,2.0842657,-11.54639,-2.5858727
1421715811433.00,2.5084836,-9.472602,-1.6332536
1421715811451.00,1.9764899,-8.680898,-0.8901988
1421715811470.00,-0.25656646,-8.080946,-0.3477269
1421715811491.00,-0.6514453,-8.778495,-1.4171032
1421715811510.00,1.9260448,-13.13309,-6.8374815
1421715811530.00,4.237089,-18.385218,-8.561596
1421715811551.00,1.1192225,-19.418518,-8.334818
1421715811570.00,-2.6087751,-17.031282,-4.9144306
1421715811591.00,-1.2982503,-11.893068,-3.0669723
1421715811610.00,-0.030835876,-8.202942,-1.4232403
1421715811631.00,-0.7529343,-5.9442887,-1.4971865
1421715811710.00,-3.0701156,-6.726113,-2.1454885
1421715811711.00,-2.7798693,-9.184002,-3.3736844
1421715811712.00,-1.3458513,-9.145981,-3.6637812
1421715811713.00,-0.66850984,-7.988588,-1.837429
1421715811731.00,-0.85816544,-6.490353,-1.1912228
1421715811750.00,-1.8474582,-4.73181,-1.7655785
1421715811772.00,-3.0054502,-4.148623,-2.0215461
1421715811790.00,-3.7983513,-4.6033773,-1.9074833
1421715811810.00,-3.6547997,-5.9333615,-1.8471588
1421715811831.00,-2.8187883,-7.4679704,-2.2020707
1421715811854.00,-1.6441809,-8.759185,-2.1897962
1421715811883.00,-0.88181627,-8.595725,-2.3114932
1421715811892.00,-0.30132338,-8.311616,-2.3363416
1421715811911.00,0.45565248,-8.336314,-2.4839346
1421715811930.00,0.8428972,-8.764574,-2.7008336
1421715811950.00,1.1053015,-9.644444,-2.6071284
1421715811970.00,1.7636325,-10.36295,-2.7657986
1421715812043.00,2.5752447,-10.414293,-3.624413
1421715812044.00,2.103426,-10.199789,-4.3022037
1421715812045.00,0.9036708,-9.810449,-4.439019
1421715812057.00,0.16525635,-9.308693,-3.5736685
1421715812070.00,-0.013621674,-9.006471,-3.1913636
1421715812099.00,0.214953,-9.345965,-3.8574784
1421715812113.00,0.17932709,-9.89173,-4.241879
1421715812133.00,-0.26719436,-8.918754,-3.0373337
1421715812150.00,-0.5185217,-7.542665,-1.9501446
1421715812170.00,-0.13906083,-6.567443,-1.4446459
1421715812191.00,0.53393966,-6.5086155,-1.1452684
1421715812210.00,0.77688444,-6.8005085,-0.9226813
1421715812230.00,0.6372249,-7.325167,-0.84589094
1421715812250.00,-0.18351837,-7.4678206,-1.18778
1421715812270.00,-0.41224274,-7.1269794,-2.1941373
1421715812290.00,0.47136977,-7.367529,-4.40968
1421715812388.00,1.1639795,-9.527088,-4.302503
1421715812390.00,0.37646714,-12.147389,-1.289269
1421715812391.00,-1.0645862,-14.421011,0.4076024
1421715812391.00,-0.103584595,-15.187119,-4.589456
1421715812393.00,0.26539811,-18.501974,-8.331076
1421715812411.00,0.60294616,-16.962128,-2.8568091
1421715812441.00,-0.79140425,-10.096205,5.5166283
1421715812499.00,-0.5369334,-7.601642,6.7319508
1421715812500.00,0.38978943,-10.146351,4.3526487
1421715812501.00,1.5141014,-13.882581,0.03861969
1421715812519.00,3.4052687,-14.414874,-3.9800735
1421715812530.00,2.395768,-11.60836,-3.7567377
1421715812552.00,-1.2525952,-8.572823,0.9568103
1421715812571.00,-2.561623,-6.6550107,2.7475364
1421715812590.00,-1.4259348,-6.893914,1.8356328
1421715812610.00,0.44517425,-8.6346445,0.2523752
1421715812630.00,2.2131476,-9.743089,-1.9308348
1421715812695.00,1.6639398,-9.712403,-1.9624192
1421715812696.00,0.47166917,-8.924591,-1.1135345
1421715812698.00,0.37227586,-8.260572,-1.8579364
1421715812711.00,0.95366687,-7.8222833,-2.7651997
1421715812731.00,1.857188,-7.950866,-3.5506165
1421715812751.00,1.6000228,-8.72296,-3.6086957
1421715812771.00,0.7749385,-8.751102,-1.7205222
1421715812790.00,-0.21689896,-8.211924,-0.5625302
1421715812812.00,-0.12963043,-7.2155952,-2.1565654
1421715812835.00,0.15837067,-5.9025254,-2.8984227
1421715812852.00,0.24189697,-7.37187,-3.4132023
1421715812871.00,-0.61372375,-9.309291,-1.6822019
1421715812890.00,-1.2989987,-8.544682,-0.21121079
1421715812910.00,-0.5484595,-7.1057234,0.37826338
1421715812931.00,0.9744736,-6.7430277,-0.8788225
1421715812950.00,2.9611423,-10.308763,-0.9877959
1421715813017.00,3.0457163,-10.574161,-0.49681687
1421715813018.00,1.7639319,-9.015452,0.01167572
1421715813019.00,1.6042141,-8.670719,0.068407744
1421715813030.00,1.459016,-9.691446,-1.5072157
1421715813051.00,1.3567786,-11.147618,-3.222798
1421715813070.00,1.6353493,-15.073355,-4.4848237
1421715813091.00,1.6498691,-18.920803,-7.027137
1421715813112.00,-1.3226495,-18.955532,-7.0433035
1421715813130.00,-2.6590705,-13.896652,-4.344116
1421715813154.00,-1.9158659,-10.705138,-3.6727624
1421715813175.00,-1.7416283,-8.73269,-1.871109
1421715813190.00,-2.8951294,-7.6616673,-2.0775297
1421715813211.00,-2.911296,-7.779622,-3.0648766
1421715813239.00,-0.8643027,-9.059461,-3.6170783
1421715813251.00,-0.048499145,-8.91576,-3.165168
1421715813270.00,-0.22049148,-7.8149486,-1.298849
1421715813290.00,-1.099314,-6.217171,-0.82777864
1421715813362.00,-2.5397685,-4.636608,-1.151705
1421715813363.00,-3.2924035,-4.4176135,-1.488804
1421715813364.00,-3.3506324,-4.489913,-1.4220428
1421715813375.00,-3.1331346,-4.919969,-1.1415262
1421715813391.00,-2.9175828,-5.899981,-0.9833052
1421715813411.00,-1.9935544,-6.5566654,-1.0376422
1421715813431.00,-0.7050339,-7.2628965,-0.85681826
1421715813453.00,0.1830693,-7.649992,-1.0054592
1421715813471.00,1.9083815,-8.121362,-1.6607964
1421715813490.00,3.6086957,-9.462722,-2.5538392
1421715813510.00,3.825445,-10.321337,-3.4407449
1421715813530.00,2.20252,-9.510174,-4.749324
1421715813550.00,0.927621,-9.478589,-3.7982016
1421715813570.00,-0.33874556,-9.910292,-3.4795144
1421715813591.00,-0.94019485,-9.735006,-3.2142658
1421715813646.00,-0.85307604,-9.610465,-3.448379
1421715813648.00,-1.3216017,-8.735834,-4.4014473
1421715813658.00,-2.199077,-7.5449104,-5.0479527
1421715813670.00,-2.934797,-7.1202435,-5.6550903
1421715813691.00,-2.8071127,-7.3513627,-4.9741564
1421715813712.00,-2.3224206,-8.916358,-3.7815862
1421715813731.00,-1.6125966,-11.1143875,-2.0616627
1421715813750.00,0.019758912,-13.962665,3.819607
1421715813770.00,1.35124,-15.546072,-1.988914
1421715813790.00,5.4519625,-19.001936,-16.22551
1421715813811.00,-0.58109164,-14.101127,4.9576902
1421715813831.00,-3.1885195,-7.300768,8.26656
1421715813851.00,-0.9991722,-6.972501,8.588989
1421715813871.00,-0.2775229,-12.393028,4.087999
1421715813890.00,3.6088455,-16.241226,-4.982838
1421715813910.00,4.154311,-14.4400215,-4.661157
1421715813931.00,0.07918534,-10.908266,0.16495697
1421715813986.00,-2.0395088,-8.120763,2.4530988
1421715813987.00,-1.6667839,-7.2362523,1.7019608
1421715813998.00,-0.16390915,-8.178244,0.24968079
1421715814012.00,1.640289,-9.240584,-1.814826
1421715814031.00,2.4472609,-8.916059,-2.176025
1421715814051.00,0.7113208,-8.598269,-1.2711567
1421715814071.00,-0.1526825,-8.222402,-1.5892452
1421715814090.00,0.5272037,-8.156688,-3.11607
1421715814111.00,0.7283853,-8.610844,-2.9533584
1421715814132.00,0.71326673,-8.150251,-2.446213
1421715814151.00,1.0195298,-7.9625416,-2.3059547
1421715814171.00,1.2933105,-7.427255,-1.9157163
1421715814190.00,0.87238586,-7.573052,-2.3625371
1421715814211.00,0.54890853,-8.659043,-2.3563998
1421715814230.00,-0.13262421,-8.791818,-0.6078859
1421715814252.00,-0.8773256,-8.167167,-0.19070344
1421715814319.00,-0.2532733,-5.9698853,-0.41299117
1421715814320.00,1.7471668,-7.334448,-1.9531385
1421715814321.00,2.372117,-10.918744,-2.7349627
1421715814331.00,0.71880525,-9.032217,0.7041357
1421715814351.00,-0.37541932,-7.6490936,1.6353493
1421715814371.00,0.101488955,-6.8542466,0.8930429
1421715814390.00,1.1009605,-6.634653,0.17618363
1421715814411.00,1.6678318,-11.6562605,-2.719844
1421715814431.00,2.0990849,-12.42117,-3.4054184
1421715814450.00,2.4757018,-11.310031,-3.703748
1421715814471.00,3.1515462,-15.488741,-5.278024
1421715814491.00,1.7257613,-19.014359,-6.9268456
1421715814510.00,-1.401236,-19.187998,-5.2422485
1421715814531.00,-2.40445,-13.757591,-1.9368224
1421715814551.00,-1.8006057,-10.124047,-0.7421567
1421715814570.00,-1.8535954,-7.888895,0.3463797
1421715814590.00,-2.9151878,-6.5437922,-1.9121237
1421715814611.00,-3.511398,-9.764345,-4.460574
1421715814664.00,-1.5241306,-10.503807,-4.042643
1421715814665.00,0.11121872,-8.877589,-1.7051042
1421715814675.00,0.23336472,-7.026987,-0.25970992
1421715814691.00,-0.7601193,-5.2630553,-0.32347733
1421715814710.00,-2.053879,-4.168232,-1.1154803
1421715814731.00,-3.079097,-4.663253,-1.4115646
1421715814750.00,-3.692671,-5.086273,-1.1970607
1421715814771.00,-3.2777338,-5.9423428,-1.0671309
1421715814790.00,-2.6084757,-6.6584535,-1.1764036
1421715814811.00,-1.5908917,-6.8814898,-1.2272978
1421715814830.00,-0.6027965,-7.63637,-1.1220666
1421715814850.00,0.25821304,-8.111781,-1.2751982
1421715814871.00,1.9302361,-7.6082287,-2.26494
1421715814891.00,3.4048197,-8.42523,-3.0662239
1421715814911.00,3.4669404,-10.283166,-4.4128237
1421715814964.00,1.2979509,-9.945618,-5.166656
1421715814965.00,0.481848,-8.718919,-4.1748185
1421715814970.00,1.2072395,-9.057964,-3.617677
1421715814990.00,1.3883629,-9.333391,-3.1091845
1421715815010.00,0.96264815,-8.900791,-2.9852421
1421715815030.00,0.77718383,-9.628877,-5.575156
1421715815051.00,-0.97342575,-9.562116,-6.8816395
1421715815071.00,-2.5521927,-8.740923,-6.2483068
1421715815094.00,-2.2932312,-8.841813,-5.8200474
1421715815115.00,-2.9671297,-10.895244,-6.4628105
1421715815130.00,-3.7387753,-11.500285,-5.021158
1421715815150.00,-3.1452594,-13.785882,-1.1937675
1421715815171.00,1.7524059,-15.087874,2.3662794
1421715815191.00,3.5480719,-18.124609,-4.7225294
1421715815210.00,1.5853533,-14.586866,-0.35610947
1421715815231.00,-4.7446833,-8.275392,6.9322343
1421715815301.00,-5.5290523,-7.3495665,7.3741155
1421715815302.00,-3.4866993,-9.815389,9.490564
1421715815303.00,-2.2201831,-13.240566,5.846243
1421715815313.00,2.7663972,-15.148798,-4.920867
1421715815331.00,4.678072,-12.437486,-3.080145
1421715815351.00,0.9397458,-9.618848,1.366658
1421715815371.00,-1.6328045,-8.203541,2.2366488
1421715815391.00,-2.4828868,-8.674012,1.8669177
1421715815411.00,-1.607058,-8.6346445,1.9453546
1421715815431.00,-0.18905686,-8.444689,1.2653188
1421715815451.00,0.86714673,-8.829988,1.283431
1421715815471.00,1.1894265,-9.060808,1.4813195
1421715815490.00,1.2410692,-9.031769,0.9048683
1421715815511.00,1.4641054,-9.101224,0.64919996
1421715815531.00,1.4611115,-9.050031,0.50220567
1421715815551.00,1.499432,-9.5898075,0.1405577
1421715815612.00,1.745071,-9.79069,-0.27108628
1421715815613.00,1.7378861,-9.705816,-0.4272116
1421715815613.00,1.5971787,-9.761052,-0.31374756
1421715815631.00,1.7242644,-10.234966,-0.6027965
1421715815651.00,2.19279,-10.335557,-0.43754014
1421715815676.00,2.314038,-10.700798,-0.63018954
1421715815690.00,2.1448896,-11.125315,-0.7722441
1421715815711.00,0.8187973,-12.413536,0.19145188
1421715815731.00,-0.5019063,-14.590758,0.96294755
1421715815751.00,-2.2227278,-13.866265,-2.2243743
1421715815773.00,-2.3951693,-11.278296,-6.1456203
1421715815791.00,-2.1344116,-10.435998,-3.4043705
1421715815811.00,-2.4373815,-10.646311,-0.39637575
1421715815830.00,-2.8821065,-10.509496,2.048041
1421715815851.00,-3.542683,-10.920391,2.5321343
1421715815871.00,-4.6758265,-11.175161,1.4224919
1421715815891.00,-5.0759444,-9.1814575,0.859812
1421715815912.00,-3.8646634,-9.569301,2.636767
1421715815934.00,-2.7671456,-10.574909,1.9699036
1421715816018.00,-1.2299923,-10.519974,-4.1023693
1421715816019.00,1.2446617,-10.646161,-1.925446
1421715816022.00,0.73332506,-9.186247,0.3980223
1421715816024.00,-0.4046086,-7.8053684,1.2976515
1421715816033.00,-0.0185614,-7.2982235,0.59785676
1421715816050.00,0.084424436,-7.388186,0.1803749
1421715816071.00,-0.066162415,-7.255412,-0.2811154
1421715816093.00,-0.7671547,-6.8148785,-0.37826338
1421715816111.00,-1.5054195,-6.1637325,-0.39502853
1421715816131.00,-1.7043557,-6.68899,-0.99737597
1421715816151.00,-1.5115567,-6.6894393,-1.5266752
1421715816170.00,-1.2795392,-6.413862,-2.3043082
1421715816191.00,-0.26719436,-6.7509613,-4.0305185
1421715816210.00,1.081052,-8.728798,-7.643555
1421715816231.00,1.7862355,-11.57962,-9.888587
1421715816301.00,2.0983365,-12.420422,-7.20362
1421715816302.00,1.7697698,-11.2953615,-5.5515056
1421715816303.00,1.431623,-10.00205,-2.6822722
1421715816312.00,0.37871248,-9.931248,-1.6006215
1421715816331.00,-1.2138258,-12.064013,-2.5950036
1421715816351.00,-1.3759388,-16.182398,-4.0698867
1421715816371.00,-3.7285964,-11.371552,-2.6845176
1421715816391.00,-5.761968,-6.028863,0.49711624
1421715816411.00,-6.1011624,-5.050198,3.7142262
1421715816431.00,-5.34748,-5.982759,4.1926312
1421715816451.00,-3.8378692,-8.481513,4.9042516
1421715816470.00,-1.4823674,-12.158466,5.5271063
1421715816491.00,3.6110907,-14.698833,2.1080663
1421715816511.00,7.196884,-11.539803,-4.2563987
1421715816531.00,2.5008495,-9.405392,0.25042924
1421715816551.00,-0.8710387,-8.975934,1.7500108
1421715816634.00,-1.4332695,-9.263038,0.9196875
1421715816635.00,-1.1633807,-9.784103,-0.60204804
1421715816636.00,-0.81804883,-9.556876,-0.32871643
1421715816637.00,-0.68976563,-9.404493,1.2045451
1421715816651.00,-0.9503737,-9.025781,2.406396
1421715816671.00,-0.59920394,-9.120384,2.5932074
1421715816691.00,0.2722838,-9.537267,1.7733623
1421715816711.00,0.655936,-9.707912,0.92208254
1421715816731.00,0.4658313,-9.3928175,0.5680687
1421715816751.00,0.07843689,-9.3771,1.024769
1421715816770.00,-0.014519806,-9.447304,1.7896783
1421715816791.00,0.5134323,-9.661359,1.766776
1421715816811.00,0.8265811,-9.332792,1.477727
1421715816831.00,0.9928853,-8.9055805,1.6705261
1421715816852.00,1.1057506,-8.880733,1.5356566
1421715816941.00,1.6042141,-8.768017,1.0792557
1421715816942.00,2.1665945,-9.970017,0.32826737
1421715816943.00,2.5536895,-10.614876,-0.44667113
1421715816944.00,2.177971,-10.703792,-0.7177574
1421715816953.00,0.87118834,-10.511741,-1.1463162
1421715816971.00,-0.004490661,-10.579849,-1.0641371
1421715816991.00,0.104183346,-10.744058,-0.34054184
1421715817011.00,0.7731422,-10.417137,0.18336868
1421715817031.00,0.92807007,-10.3568125,0.25417146
1421715817053.00,0.7030879,-11.935431,-0.43858796
1421715817076.00,-0.3275189,-13.471236,-1.6030165
1421715817091.00,-1.7094452,-13.526771,-1.8480569
1421715817111.00,-2.8614495,-11.775562,-1.4087205
1421715817131.00,-3.155139,-10.571167,-0.791554
1421715817151.00,-3.126698,-11.131751,0.9380992
1421715817171.00,-3.3528776,-11.418855,2.304458
1421715817191.00,-3.8239481,-11.215577,2.672692
1421715817211.00,-4.149521,-11.201656,3.1734009
1421715817273.00,-3.9839654,-11.222013,3.312761
1421715817274.00,-4.5494895,-10.385254,0.7363188
1421715817275.00,-2.3623874,-9.258846,-3.197351
1421715817291.00,0.6126759,-9.65148,0.6342311
1421715817310.00,0.15178436,-7.808063,1.3644127
1421715817331.00,-0.818947,-6.524033,1.8583854
1421715817354.00,-1.7004639,-5.9399476,2.9877868
1421715817372.00,-2.1505778,-5.2926936,2.8770173
1421715817391.00,-0.9960287,-4.660259,1.7952168
1421715817412.00,0.7617659,-5.7242465,0.9940828
1421715817431.00,2.2626946,-9.052875,-0.6493497
1421715817451.00,3.7606297,-9.666299,-5.7616687
1421715817474.00,4.217779,-8.817265,-9.630524
1421715817498.00,3.1934593,-8.30009,-8.874446
1421715817513.00,0.40520737,-9.475296,-0.3132985
1421715817543.00,-2.407294,-13.034145,4.8133907
1421715817551.00,-3.9883063,-14.2623415,5.055437
1421715817611.00,-1.6889378,-11.237432,-5.359455
1421715817612.00,-0.0092807,-8.072114,-2.9409342
1421715817613.00,-1.3439053,-9.780511,3.6010616
1421715817631.00,-1.2256513,-11.282937,3.801794
1421715817651.00,-0.753533,-11.144625,0.4643344
1421715817671.00,0.15328126,-10.750644,-1.0277628
1421715817691.00,1.5341597,-10.496622,-0.5096901
1421715817711.00,0.6953041,-9.932745,0.49427214
1421715817732.00,-0.6224057,-9.555978,0.81101346
1421715817751.00,-0.9466315,-9.499247,0.008981323
1421715817771.00,-0.8454419,-9.246422,-0.122445375
1421715817792.00,-0.53813094,-8.863817,0.32302827
1421715817811.00,0.2856061,-8.710237,0.17483643
1421715817831.00,0.882415,-8.823851,-0.36988083
1421715817903.00,1.0059083,-9.094338,-1.4379098
1421715817904.00,0.8449928,-9.481732,-1.748963
1421715817905.00,0.2932402,-9.489516,-1.4254857
1421715817915.00,-0.0398172,-9.246422,-0.5876779
1421715817931.00,-0.3065625,-8.92534,-0.6839278
1421715817951.00,0.041613463,-8.793464,-1.9246975
1421715817971.00,0.8111632,-8.868757,-3.3175511
1421715817993.00,0.7291338,-8.691525,-1.8344352
1421715818011.00,-0.02574646,-8.4608555,0.21540207
1421715818031.00,0.21076173,-7.473958,-0.42511597
1421715818051.00,0.94827807,-7.2331085,-1.3524376
1421715818072.00,1.2740006,-8.34814,-1.5365547
1421715818096.00,0.873284,-10.140363,-1.6516653
1421715818110.00,0.25012985,-8.734337,-0.121846616
1421715818131.00,-0.36733612,-7.6266403,0.35595977
1421715818151.00,0.09235794,-7.858658,-0.18950592
1421715818215.00,0.56193143,-8.345446,-0.66821045
1421715818216.00,1.04348,-9.359886,-1.7983603
1421715818218.00,0.41628432,-9.216784,-0.7592212
1421715818232.00,1.0115963,-8.23782,-1.3900094
1421715818251.00,2.7291248,-9.094788,-2.820285
1421715818271.00,2.8839028,-9.268426,-2.0218456
1421715818291.00,2.710264,-9.948313,-1.8815873
1421715818311.00,2.9442275,-10.147398,-2.5641677
1421715818333.00,3.9857616,-13.351186,-4.2162824
1421715818357.00,3.5643878,-18.615738,-5.0385222
1421715818371.00,-0.5195696,-18.470541,-6.2810884
1421715818391.00,-3.182083,-12.78641,-3.2094758
1421715818411.00,-3.6348913,-9.823622,-1.241668
1421715818433.00,-3.4858012,-8.849896,-0.7994875
1421715818452.00,-3.9698946,-9.142239,-1.750909
1421715818471.00,-3.3495846,-10.150841,-3.6904256
1421715818491.00,-1.309477,-10.079739,-3.5278637
1421715818511.00,-0.84050214,-8.432116,-2.1770728
1421715818576.00,-0.6489006,-6.8614316,-0.8653505
1421715818576.00,-1.3376184,-5.562882,-0.7810757
1421715818577.00,-2.3433769,-4.6421466,-1.369053
1421715818591.00,-2.8490255,-4.7192364,-1.5796651
1421715818611.00,-2.959795,-5.0970507,-1.5320641
1421715818631.00,-2.7006838,-5.8761806,-1.298849
1421715818651.00,-1.7877324,-6.638695,-0.9475296
1421715818671.00,-0.9957294,-6.896908,-0.7933502
1421715818706.00,-0.14519806,-7.295379,-0.8319699
1421715818719.00,1.2470567,-7.654033,-1.5739769
1421715818731.00,2.9142897,-8.981473,-2.4167244
1421715818751.00,3.3546739,-9.856553,-3.7583845
1421715818771.00,2.3107448,-9.861643,-4.351301
1421715818791.00,0.81804883,-9.159004,-3.580704
1421715818811.00,-0.15073654,-8.908724,-2.9142897
1421715818831.00,-0.10777588,-9.413923,-3.286266
1421715818888.00,0.5349875,-9.821227,-3.8086798
1421715818889.00,0.3820056,-10.359208,-5.608836
1421715818892.00,-0.36553985,-10.025402,-6.7340465
1421715818911.00,-1.1781999,-9.190438,-4.586163
1421715818931.00,-1.4678476,-8.368498,-3.0341904
1421715818951.00,-1.6789087,-7.116651,-2.9193792
1421715818974.00,-2.253414,-6.8290987,-1.239722
1421715818993.00,-2.9382398,-8.376282,0.3224295
1421715819012.00,-2.717449,-11.731255,0.7206015
1421715819034.00,-1.0963202,-13.463452,-1.7257613
1421715819054.00,-0.058977354,-12.346625,-0.90591615
1421715819071.00,-0.8158035,-17.62899,-3.6803966
1421715819091.00,2.3459215,-18.262173,-11.541899
1421715819111.00,0.068258055,-10.231673,5.09256
1421715819132.00,0.08741821,-7.7417507,7.560328
1421715819194.00,0.7614665,-10.147248,5.4163365
1421715819195.00,2.2761667,-12.282708,2.4301963
1421715819196.00,2.411186,-13.024715,-2.1935384
1421715819211.00,2.7291248,-12.449162,-3.8740938
1421715819232.00,0.9105565,-9.868229,-1.2820839
1421715819251.00,-0.6047424,-7.968529,1.2039464
1421715819271.00,-0.33635056,-7.5073385,0.597258
1421715819292.00,0.59007293,-8.062534,-0.91100556
1421715819311.00,0.434247,-8.221054,-1.0982661
1421715819331.00,0.18591338,-8.585696,-0.59890455
1421715819351.00,0.98764616,-9.052575,-2.0863614
1421715819371.00,1.6110997,-9.163195,-3.1241534
1421715819391.00,1.6278648,-8.932824,-1.8080901
1421715819411.00,1.787433,-8.641231,-2.1278253
1421715819431.00,1.5980768,-7.9867916,-3.2876134
1421715819451.00,0.9557625,-7.936197,-2.9368927
1421715819471.00,0.5831873,-8.95902,-1.8625767
1421715819523.00,-0.0981958,-8.451725,0.64381117
1421715819524.00,0.13636643,-7.3639364,-0.735271
1421715819532.00,1.5298188,-7.111262,-3.838917
1421715819551.00,0.9659413,-7.369924,-1.4259348
1421715819571.00,0.43349853,-9.727821,0.36314484
1421715819591.00,0.7656578,-8.600965,-0.13412109
1421715819611.00,0.86445236,-8.231682,-1.4825171
1421715819631.00,-0.1472937,-8.262967,0.8231383
1421715819651.00,0.81385756,-8.553812,1.1756552
1421715819672.00,1.5965799,-8.567883,-1.1341914
1421715819691.00,1.5872992,-9.4667635,-3.3287778
1421715819711.00,1.6022681,-9.931697,-1.7848883
1421715819731.00,1.5259268,-10.006541,-2.068848
1421715819751.00,2.9530592,-11.539204,-3.5013688
1421715819772.00,2.1305196,-11.8300495,-3.7567377
1421715819792.00,1.8058448,-14.786701,-4.4632688
1421715819866.00,0.32811767,-18.806742,-5.2227893
1421715819867.00,-2.6981392,-16.385975,-5.066963
1421715819868.00,-3.322491,-12.734019,-3.099754
1421715819878.00,-1.9314336,-10.315498,-2.4080424
1421715819892.00,-0.9792636,-8.648116,-1.0621911
1421715819912.00,-1.9959494,-7.643106,-1.3308824
1421715819931.00,-2.1002824,-10.717862,-3.7947588
1421715819952.00,-0.76191556,-11.713292,-3.8993912
1421715819972.00,-0.30117372,-9.608968,-2.188898
1421715819993.00,-0.569865,-7.9255686,-1.2762461
1421715820013.00,-1.4141093,-6.5235844,-1.1452684
1421715820031.00,-2.054328,-5.4148397,-1.8549427
1421715820051.00,-2.5367746,-5.9165964,-2.3537054
1421715820071.00,-2.4056475,-6.5475345,-2.3715184
1421715820091.00,-1.9372715,-6.677464,-2.239493
1421715820111.00,-1.5078145,-6.2972546,-2.0222945
1421715820131.00,-1.3695021,-5.399122,-1.1268567
1421715820194.00,-1.0594968,-4.4706035,-0.3463797
1421715820195.00,-0.37302428,-4.3104362,-0.25821304
1421715820195.00,0.30701157,-4.914131,-0.83795744
1421715820212.00,1.6679814,-7.3792048,-1.3289365
1421715820231.00,3.1240036,-10.809023,-2.9809012
1421715820251.00,4.2400827,-12.324921,-3.3537757
1421715820273.00,4.3983035,-10.612631,-1.9248472
1421715820292.00,3.40946,-9.156459,-2.5002508
1421715820312.00,1.8808388,-9.502989,-3.4600549
1421715820334.00,0.7747888,-9.875264,-4.248316
1421715820353.00,-0.4126918,-9.617201,-5.5806947
1421715820372.00,-1.9739451,-9.053024,-3.684588
1421715820392.00,-2.6670039,-9.716595,-3.2004945
1421715820412.00,-2.0806732,-10.330767,-2.4171734
1421715820431.00,-1.4603631,-8.817863,-1.886976
1421715820498.00,-1.8250049,-7.560777,-3.1708562
1421715820499.00,-1.9931053,-8.159981,-4.292474
1421715820500.00,-1.4891034,-9.287137,-3.9125638
1421715820522.00,-0.20103195,-11.11289,-0.12663665
1421715820537.00,1.1186239,-13.975089,2.6771827
1421715820555.00,1.5636483,-18.592237,-3.0048513
1421715820571.00,4.8635364,-18.453476,-11.719579
1421715820592.00,-1.8453625,-9.18505,4.4721003
1421715820613.00,-3.4727783,-7.8257265,6.6201334
1421715820633.00,-2.225123,-10.221495,5.475464
1421715820651.00,-0.7934999,-12.8012295,2.1820126
1421715820671.00,1.9652632,-12.751084,-2.6524842
1421715820692.00,3.6060014,-11.094329,-2.0776794
1421715820711.00,1.7083974,-9.269324,0.34937346
1421715820731.00,0.054337006,-7.8683877,1.18778
1421715820751.00,0.003143463,-7.6983414,0.91744214
1421715820771.00,1.0710227,-8.085586,-0.09071136
1421715820791.00,2.028432,-9.414073,-1.7389339
1421715820852.00,1.7962646,-9.717342,-3.4756224
1421715820853.00,1.2400213,-9.075028,-3.5982175
1421715820854.00,1.011297,-8.479267,-2.8360026
1421715820873.00,0.8927435,-8.264913,-2.3546035
1421715820891.00,1.0624906,-8.1794405,-2.5032444
1421715820911.00,1.3687537,-8.580457,-2.3134391
1421715820931.00,1.7214203,-8.589438,-1.7066011
1421715820951.00,1.7911752,-8.33871,-1.6069084
1421715820975.00,1.911525,-8.018525,-3.0987062
1421715820993.00,1.7220191,-7.160809,-3.656147
1421715821011.00,0.4300557,-7.707023,-2.9961693
1421715821031.00,-1.3374687,-8.27599,-1.5037729
1421715821052.00,-1.963467,-7.5360785,0.6893166
1421715821071.00,-1.4048287,-6.667585,0.14804214
1421715821091.00,0.15911911,-7.6875634,-2.2463787
1421715821111.00,1.543141,-10.930869,-2.9237201
1421715821228.00,1.19736,-10.101893,-0.472717
1421715821231.00,0.42915756,-8.903186,-2.2900877
1421715821232.00,0.064964905,-8.342452,-1.1181748
1421715821233.00,0.37197646,-6.9677105,-0.62569886
1421715821236.00,1.4732364,-7.6712475,-1.4828165
1421715821238.00,2.8047175,-10.976075,-2.1194427
1421715821253.00,2.6421556,-11.319161,-2.2022204
1421715821271.00,2.5848248,-13.381124,-2.8394454
1421715821292.00,2.1215382,-18.61978,-5.8785753
1421715821315.00,-0.6126759,-18.986517,-8.0105915
1421715821331.00,-1.864822,-15.043267,-5.832771
1421715821352.00,-1.5320641,-12.010574,-4.7671366
1421715821371.00,-1.2202624,-9.769584,-0.6556366
1421715821393.00,-2.6159601,-8.097561,-1.0087523
1421715821411.00,-2.6918523,-8.855286,-3.859125
1421715821487.00,-0.65458876,-10.851833,-4.440516
1421715821488.00,-0.5986052,-9.603879,-2.8216324
1421715821490.00,-0.74125856,-7.254514,-1.0865904
1421715821491.00,-1.5298188,-5.2423983,-0.75622743
1421715821511.00,-2.619852,-3.3766782,-1.0641371
1421715821531.00,-2.9835956,-3.5968702,-1.6661851
1421715821552.00,-2.651586,-4.478836,-1.6637901
1421715821575.00,-2.4031026,-5.331613,-1.344055
1421715821593.00,-2.3650818,-6.289621,-1.3102254
1421715821618.00,-2.1667442,-6.8900223,-0.99019086
1421715821633.00,-1.477278,-6.995852,-0.563578
1421715821651.00,0.013172608,-7.1711373,-0.821342
1421715821672.00,1.7938696,-7.781718,-1.4518309
1421715821691.00,3.2313304,-9.245374,-2.6234446
1421715821711.00,3.9477406,-11.398646,-4.1174874
1421715821732.00,1.8917661,-11.525283,-4.99631
1421715821754.00,0.4447252,-10.642569,-5.134922
1421715821828.00,0.41912842,-10.783425,-5.6272483
1421715821830.00,0.24519013,-11.015443,-5.2691927
1421715821831.00,-0.20567231,-10.404564,-4.454886
1421715821832.00,-0.8927435,-9.203012,-3.7092865
1421715821852.00,-0.8545729,-8.547675,-2.7405012
1421715821871.00,-0.56657183,-8.429122,-2.334246
1421715821891.00,-0.17753083,-8.197553,-1.1563454
1421715821915.00,-0.18666184,-8.381221,-0.23067032
1421715821931.00,0.025896149,-8.5204315,-0.09849518
1421715821951.00,0.15702347,-8.85798,-1.637894
1421715821972.00,0.3278183,-8.590635,-3.3835638
1421715821991.00,-0.09340576,-7.8764706,-4.210744
1421715822011.00,-0.8741821,-8.009994,-3.9564226
1421715822031.00,-1.7181271,-9.277557,-3.206931
1421715822053.00,-1.8947598,-11.242521,-0.6144722
1421715822074.00,-1.6515156,-12.237802,0.6592291
1421715822145.00,-1.6914825,-12.57026,1.7841399
1421715822146.00,-0.20207977,-18.506166,-5.9041724
1421715822147.00,6.0011706,-15.852784,-7.909103
1421715822159.00,-0.48768586,-8.609945,7.436536
1421715822172.00,-1.3653108,-6.0782604,7.1943393
1421715822191.00,-0.013771363,-8.182136,4.598737
1421715822211.00,0.38799316,-12.004886,2.2926323
1421715822232.00,0.6873706,-12.806768,-0.59276736
1421715822251.00,2.2168899,-11.307336,-3.8594244
1421715822272.00,1.0957215,-9.007369,-1.6519647
1421715822291.00,-0.5348378,-8.046667,0.9985735
1421715822312.00,0.1565744,-8.794063,0.22408402
1421715822332.00,1.2478051,-9.353898,-0.6261479
1421715822353.00,1.7601897,-9.211246,-0.56492525
1421715822372.00,1.411415,-9.140891,-0.6129753
1421715822392.00,0.9852512,-9.043144,-1.6314573
1421715822412.00,0.9812096,-9.176218,-2.8178902
1421715822473.00,0.90277267,-8.59348,-1.7477655
1421715822475.00,0.5255571,-8.119116,-0.48394364
1421715822475.00,1.0645862,-8.6401825,-1.7938696
1421715822491.00,1.7800983,-9.293275,-3.2362702
1421715822512.00,1.3343253,-9.179811,-2.1269271
1421715822531.00,0.6385721,-8.30473,-0.86984116
1421715822551.00,-0.13471985,-7.08836,-0.23845413
1421715822577.00,-0.21570145,-7.0485425,-1.8938617
1421715822592.00,1.0376422,-9.232202,-5.0385222
1421715822612.00,0.79799056,-9.893676,-2.4863296
1421715822631.00,-0.48633865,-8.124056,1.6967217
1421715822651.00,-0.67195266,-6.1763062,1.9926562
1421715822671.00,0.8159532,-6.534362,-1.9176621
1421715822691.00,1.6504679,-10.735375,-2.8020232
1421715822711.00,1.591191,-10.593021,-0.2549199
1421715822731.00,0.963696,-8.293803,-1.0030642
1421715822754.00,-0.23007156,-7.497459,0.26884094
1421715822819.00,0.47556105,-7.3827972,0.13382171
1421715822820.00,2.8997698,-10.143058,-2.599644
1421715822821.00,3.0226643,-10.416389,-1.1662248
1421715822832.00,2.2158422,-9.144933,-0.47765672
1421715822851.00,1.9514918,-9.329649,-1.463806
1421715822871.00,2.088906,-10.657687,-2.756518
1421715822891.00,3.9248383,-16.724272,-4.783004
1421715822916.00,3.0178742,-19.19249,-7.2997203
1421715822932.00,-0.002844086,-17.320782,-6.007607
1421715822953.00,-1.9699036,-13.017979,-4.040548
1421715822971.00,-2.3757098,-10.28571,-2.4739056
1421715822991.00,-2.226021,-8.6578455,0.12648697
1421715823014.00,-2.3366408,-8.471932,-1.6504679
1421715823031.00,0.29548553,-10.93521,-3.62576
1421715823052.00,0.56342834,-10.8473425,-2.965633
1421715823120.00,0.084723815,-8.278086,-0.91250247
1421715823121.00,-0.34742752,-6.267766,-1.0765613
1421715823122.00,-1.2136761,-5.0274453,-1.6149917
1421715823132.00,-2.7297235,-4.2867856,-2.154919
1421715823151.00,-3.165617,-4.7960267,-2.0910017
1421715823171.00,-2.7791207,-5.6164703,-1.9266435
1421715823191.00,-2.5315356,-6.022576,-1.4178516
1421715823211.00,-1.9101777,-6.440956,-1.0852432
1421715823232.00,-1.2263997,-6.414461,-0.98225737
1421715823251.00,-0.5451663,-5.977819,-1.0981164
1421715823271.00,0.040415954,-5.7068825,-1.6968713
1421715823292.00,1.0753638,-5.9679394,-2.1891975
1421715823311.00,2.224075,-7.8266244,-2.525548
1421715823333.00,3.231929,-10.832374,-3.1379247
1421715823355.00,3.1498997,-11.020533,-2.9187803
1421715823374.00,1.8281484,-9.672136,-2.5152197
1421715823392.00,1.2314891,-9.364377,-3.3804204
1421715823463.00,1.1475137,-9.873917,-5.185517
1421715823464.00,1.4033318,-10.336455,-5.395081
1421715823465.00,1.0415341,-10.132579,-4.4426117
1421715823475.00,-0.13711487,-9.420211,-3.4896932
1421715823491.00,-0.35311568,-8.850495,-3.0409265
1421715823511.00,-0.25372237,-8.363258,-2.5137227
1421715823531.00,-0.60579026,-8.172405,-1.904789
1421715823556.00,-1.2210109,-8.356523,-2.0004401
1421715823572.00,-1.81288,-8.300389,-3.353626
1421715823591.00,-1.0963202,-8.964558,-5.155878
1421715823613.00,0.18531464,-10.962154,-4.4887156
1421715823631.00,-0.043110352,-13.457166,-1.2207115
1421715823654.00,0.063767396,-15.050003,-1.0557545
1421715823671.00,1.2000545,-18.15844,-6.718778
1421715823691.00,2.520309,-15.898888,-5.6226077
1421715823711.00,-1.9992425,-8.647068,6.4246397
1421715823731.00,-2.086062,-6.6979713,7.8149486
1421715823799.00,-0.5816904,-10.082284,5.5211186
1421715823800.00,0.6243517,-13.786032,0.7725435
1421715823802.00,2.718946,-13.704601,-4.460724
1421715823811.00,2.1383033,-11.477682,-3.6055522
1421715823831.00,-0.38799316,-9.379346,1.0518626
1421715823852.00,-1.7112415,-7.9867916,1.393602
1421715823871.00,-0.42511597,-8.592881,-0.3769162
1421715823891.00,1.9288888,-9.441766,-0.8569679
1421715823911.00,2.834805,-9.170081,-0.9523196
1421715823933.00,1.9862196,-9.058113,-1.3320799
1421715823952.00,1.0981164,-8.675809,-2.6918523
1421715823971.00,1.2320879,-8.0563965,-3.0868807
1421715823992.00,1.2211605,-7.8296185,-2.2826033
1421715824014.00,0.6777905,-7.406748,-2.0583696
1421715824032.00,0.38963974,-8.159832,-2.8136988
1421715824119.00,0.6936575,-8.625064,-3.5103502
1421715824120.00,0.9460327,-8.472082,-3.1307397
1421715824121.00,0.90441924,-8.067324,-2.9865894
1421715824121.00,0.12888199,-7.1144056,-0.72898406
1421715824132.00,-0.23710693,-7.5999956,-1.2879218
1421715824151.00,0.80652285,-8.514744,-2.8945308
1421715824175.00,0.21510269,-8.4045725,0.21585113
1421715824191.00,0.18486556,-8.110884,0.32841706
1421715824212.00,0.62599826,-8.250093,0.33171022
1421715824234.00,1.153651,-9.325458,-1.1428734
1421715824253.00,1.5245796,-10.1454525,-1.2737013
1421715824271.00,1.008902,-9.407936,-0.006885681
1421715824291.00,1.3204042,-8.655002,-0.8702902
1421715824314.00,1.8083894,-8.474776,-0.9849518
1421715824333.00,1.4703923,-9.606723,-1.2448114
1421715824353.00,1.6414865,-10.919792,-1.8455123
1421715824431.00,3.0467641,-14.054124,-3.5043626
1421715824432.00,3.0831385,-18.677858,-6.2441154
1421715824434.00,0.9446855,-18.976788,-7.639364
1421715824434.00,-1.3647121,-14.663507,-4.2155337
1421715824462.00,-2.2652395,-10.731933,-2.8810587
1421715824471.00,-2.2662873,-8.474029,-1.0098001
1421715824493.00,-2.778073,-7.779173,-1.0425819
1421715824511.00,-2.625091,-8.797955,-3.5218763
1421715824531.00,-0.29129425,-10.235865,-4.1905355
1421715824556.00,-0.047601014,-9.418115,-2.719844
1421715824571.00,-0.07125183,-7.7414517,-0.90307206
1421715824591.00,-0.81131285,-5.9050703,-0.49696654
1421715824612.00,-2.3592439,-4.5060797,-0.7140152
1421715824633.00,-3.1522949,-4.6180468,-1.3033397
1421715824653.00,-2.8379486,-5.095554,-1.7441729
1421715824674.00,-2.802472,-5.1030383,-1.4376105
1421715824744.00,-2.3152354,-5.4169354,-0.95216995
1421715824745.00,-1.6566051,-5.8468413,-0.4393364
1421715824746.00,-1.0356963,-6.843469,-0.17333955
1421715824756.00,0.0889151,-7.6466985,0.12633727
1421715824772.00,1.4666501,-7.8459344,-1.2991484
1421715824794.00,2.8753707,-8.81457,-3.4492772
1421715824812.00,3.0482612,-10.374776,-5.300777
1421715824832.00,1.9944525,-11.773168,-6.498736
1421715824851.00,-0.07918534,-10.865006,-6.777606
1421715824871.00,0.48005173,-9.55508,-5.806725
1421715824892.00,0.5113367,-9.535321,-4.7850995
1421715824911.00,-0.121247865,-10.12749,-4.312083
1421715824932.00,-0.6024971,-9.411978,-3.6384838
1421715824951.00,-1.0674303,-8.365803,-3.3579671
1421715824971.00,-1.8727555,-7.693701,-4.0085144
1421715824992.00,-2.1143532,-6.926097,-3.7558396
1421715825012.00,-2.3758593,-7.1720357,-4.3923163
1421715825083.00,-2.3345454,-9.6654005,-5.302573
1421715825084.00,-1.6832497,-13.629158,-3.1751971
1421715825085.00,2.3525078,-16.904646,-1.8540444
1421715825092.00,5.663323,-18.764528,-4.609514
1421715825111.00,2.0803738,-19.199224,-10.190808
1421715825132.00,-4.1122484,-8.943602,5.565726
1421715825152.00,-7.786508,-5.5250106,7.320677
1421715825174.00,-4.722679,-5.8245378,6.247109
1421715825196.00,-1.6175363,-9.799671,5.2241364
1421715825212.00,1.7259109,-15.1893635,1.1109897
1421715825231.00,5.084477,-15.689323,-2.882406
1421715825252.00,3.9830673,-11.667038,-1.7299526
1421715825272.00,0.58453447,-9.274264,-0.33784744
1421715825291.00,-1.1297008,-7.793094,0.9726773
1421715825313.00,-0.9897418,-7.9327536,1.3965957
1421715825331.00,-0.87118834,-8.911868,0.773741
1421715825351.00,-0.123493195,-9.462722,0.41987687
1421715825413.00,0.4843927,-9.340726,0.16929795
1421715825414.00,0.98135924,-9.06455,0.03487747
1421715825415.00,1.201252,-8.995244,-0.47062135
1421715825431.00,1.4211447,-8.966804,-0.56238055
1421715825451.00,1.2433145,-9.443711,-0.002993774
1421715825472.00,1.257535,-9.585766,-0.40909928
1421715825491.00,1.2439133,-9.618099,-0.55324954
1421715825511.00,1.2358301,-9.322763,-0.8628058
1421715825531.00,1.2491524,-9.211395,-1.1006612
1421715825552.00,1.8293458,-10.243499,-0.7620653
1421715825571.00,2.5424628,-10.740315,-0.1393602
1421715825591.00,2.2013223,-10.605296,-0.3248245
1421715825611.00,1.712439,-10.428514,-0.81280977
1421715825632.00,1.4115646,-10.904374,-0.15358062
1421715825652.00,0.85846484,-13.64742,0.88031936
1421715825672.00,-2.0169058,-14.56112,0.5644762
1421715825732.00,-4.9210167,-12.999717,-5.4654346
1421715825733.00,-4.076323,-11.51675,-7.1985307
1421715825734.00,-2.9788055,-11.06993,-0.8298743
1421715825751.00,-1.9261944,-11.777209,-1.1126362
1421715825771.00,-3.107987,-12.202025,0.40311173
1421715825791.00,-4.6777725,-10.821446,2.162104
1421715825811.00,-4.5041337,-9.471704,2.5704546
1421715825833.00,-3.6010616,-9.026529,3.7670662
1421715825853.00,-4.1029677,-9.4494,0.48259643
1421715825876.00,-1.7793498,-10.265353,-3.8145177
1421715825892.00,0.6328839,-9.927056,-1.5706837
1421715825912.00,0.436642,-8.168813,0.7908055
1421715825931.00,-0.0504451,-6.680009,0.71251833
1421715825952.00,0.1419049,-6.4927483,0.1592688
1421715825972.00,0.07364685,-6.5999255,0.08786728
1421715825993.00,-0.33754808,-6.3703027,-0.081580356
1421715826055.00,-0.9270222,-6.1294537,-0.9065149
1421715826055.00,-1.2476555,-5.7678056,-1.7479151
1421715826057.00,-1.1347902,-6.468798,-2.4307952
1421715826079.00,-1.3751903,-7.181017,-2.8198361
1421715826092.00,-0.35087037,-7.2706804,-4.5445495
1421715826112.00,0.44652146,-8.955577,-8.508157
1421715826131.00,0.690065,-10.498419,-9.888737
1421715826152.00,1.1666739,-10.61293,-8.365205
1421715826171.00,1.6757653,-9.753418,-5.946085
1421715826194.00,1.4166541,-9.884845,-2.2237756
1421715826211.00,0.45954436,-9.203012,-1.0029144
1421715826233.00,-0.560734,-8.980275,-2.0568726
1421715826252.00,-1.0530602,-14.517711,-2.8536658
1421715826272.00,-2.8967762,-18.892363,-4.2809477
1421715826292.00,-3.6468663,-12.914993,-5.619614
1421715826377.00,-5.2245855,-4.729116,1.0424323
1421715826378.00,-5.3313136,-3.8300853,4.0974293
1421715826379.00,-5.240153,-3.686534,4.666396
1421715826380.00,-4.0189924,-7.085815,5.2648516
1421715826391.00,-1.3897101,-12.560979,7.1891003
1421715826413.00,2.3537054,-15.575261,6.3459034
1421715826431.00,7.355105,-12.185111,-9.333691
1421715826451.00,4.7069616,-9.41093,-2.3158343
1421715826472.00,0.03278183,-9.402248,2.0257375
1421715826492.00,-1.9139199,-8.954978,0.5596861
1421715826511.00,-2.061513,-9.4000025,-0.34967285
1421715826532.00,-1.2183166,-9.334888,1.2491524
1421715826551.00,-0.5670209,-9.137299,2.2873933
1421715826571.00,-0.13606705,-9.078771,2.3484664
1421715826592.00,0.4845424,-9.55957,2.2016218
1421715826612.00,1.0559043,-9.59325,2.2975721
1421715826631.00,1.1187735,-9.657317,1.7208215
1421715826702.00,0.77149564,-9.552385,0.82089293
1421715826703.00,0.46598098,-9.213041,1.1524534
1421715826704.00,0.60608965,-9.088201,1.7071998
1421715826718.00,0.9333092,-9.231752,1.6425344
1421715826732.00,1.3651612,-9.44446,1.3705499
1421715826752.00,1.5693365,-9.157058,0.8466394
1421715826772.00,1.8705102,-8.913814,0.57914567
1421715826791.00,2.03412,-9.611214,0.03502716
1421715826813.00,1.8603314,-10.502311,-0.78781176
1421715826833.00,1.2280463,-10.817255,-1.2400213
1421715826856.00,0.22213806,-10.812466,-1.129102
1421715826871.00,-0.32542327,-10.582094,-0.6979985
1421715826891.00,-0.31748977,-10.248887,-1.2867242
1421715826912.00,0.5137317,-11.975098,-5.617668
1421715826932.00,2.0395088,-15.609989,-2.738705
1421715826952.00,1.5573615,-16.156952,0.95980406
1421715827023.00,-0.42706192,-13.286371,0.75742495
1421715827024.00,-2.157164,-11.106304,-3.1509476
1421715827025.00,-3.9185514,-10.7115755,-1.7775536
1421715827037.00,-4.6156516,-10.797796,2.360741
1421715827052.00,-5.263205,-11.255993,2.903512
1421715827073.00,-3.9680984,-12.518168,5.1937494
1421715827092.00,-3.9866598,-12.272678,6.3387184
1421715827112.00,-0.4950206,-10.880873,-6.663693
1421715827131.00,2.0435505,-10.064621,-2.6749375
1421715827151.00,-0.318837,-7.8242292,1.257535
1421715827171.00,-1.3894107,-6.209238,1.7666262
1421715827192.00,-1.8815873,-5.2816167,1.0744656
1421715827211.00,-1.3157638,-5.1245933,0.9062155
1421715827232.00,-1.0172845,-5.407056,0.7195537
1421715827252.00,-0.9460327,-5.382357,0.29638368
1421715827272.00,-1.0011182,-4.947961,0.09520203
